timestamp,right_hand_Accel_X,right_hand_Accel_Y,right_hand_Accel_Z,right_hand_Gyro_X,right_hand_Gyro_Y,right_hand_Gyro_Z,left_hand_Accel_X,left_hand_Accel_Y,left_hand_Accel_Z,left_hand_Gyro_X,left_hand_Gyro_Y,left_hand_Gyro_Z,right_leg_Accel_X,right_leg_Accel_Y,right_leg_Accel_Z,right_leg_Gyro_X,right_leg_Gyro_Y,right_leg_Gyro_Z,left_leg_Accel_X,left_leg_Accel_Y,left_leg_Accel_Z,left_leg_Gyro_X,left_leg_Gyro_Y,left_leg_Gyro_Z
358.262,0.4881,7.9394,6.0634,1.12,-1.4,1.19,0.8662,-9.734,-1.2969,9.1,-0.77,-0.98,0.0144,-0.1341,8.5425,-1.3511,-0.4198,-0.5115,-0.3376,-7.3646,-6.7421,-3.3206,1.1908,0.4275
448.628,0.4929,7.8772,6.0491,-0.07,-1.19,1.12,0.804,-9.6957,-0.8088,-6.86,-2.45,-1.26,0.0694,-0.1101,8.5281,-1.2977,-0.6183,-0.6183,-0.2658,-7.3263,-6.8043,-2.9924,1.1908,0.374
538.388,0.4929,7.9346,6.0921,0.98,-1.33,1.05,0.8471,-9.6431,-1.2012,10.01,-0.98,-0.98,-0.0503,-0.1724,8.5449,-1.4656,-0.7176,-0.3053,-0.3591,-7.3382,-6.6846,-3.4198,0.9847,0.4198
630.337,0.4546,7.858,6.0251,0.28,-1.19,1.05,0.8136,-9.7531,-1.1916,-8.47,-2.24,-1.26,-0.0072,-0.1077,8.5473,-1.2824,-0.5344,-0.6107,-0.3711,-7.3454,-6.7516,-3.2366,1.0992,0.542
720.005,0.5073,7.9537,6.0873,0.84,-1.33,0.84,0.8327,-9.5952,-0.7418,8.82,-0.77,-0.98,0.0527,-0.1101,8.4803,-1.4885,-0.5878,-0.2443,-0.3352,-7.3023,-6.7349,-3.2137,1.229,0.3053
929.867,0.4977,7.9394,6.0682,0.56,-1.26,0.84,0.8375,-9.7723,-1.5984,-4.06,-2.31,-1.19,0.0694,-0.1532,8.4396,-1.374,-0.3588,-0.5496,-0.3807,-7.2832,-6.7756,-3.3206,1.1603,0.4809
1017.863,0.4786,7.8676,6.0443,0.63,-1.19,1.19,0.8231,-9.6,-0.6604,1.68,-1.61,-1.12,-0.0168,-0.0766,8.4491,-1.542,-0.6031,-0.3817,-0.34,-7.3143,-6.6295,-3.3206,0.916,0.3969
1108.147,0.4929,7.9537,6.0682,1.33,-1.33,1.05,0.8662,-9.7723,-1.5745,2.87,-1.4,-1.05,0.0215,-0.1365,8.6072,-1.2137,-0.7252,-0.5725,-0.261,-7.3574,-6.7157,-3.2977,0.9924,0.3893
1198.885,0.4929,7.8772,6.0491,-0.28,-1.19,1.12,0.7992,-9.7101,-0.5647,2.17,-2.24,-1.19,-0.0144,-0.1724,8.4922,-1.2672,-0.5649,-0.1756,-0.3543,-7.3885,-6.6056,-3.3664,0.9695,0.3511
1289.147,0.4594,7.949,6.073,1.05,-1.33,0.98,0.8806,-9.7005,-1.5936,1.12,-1.68,-1.05,0.0862,-0.1269,8.5114,-1.3588,-0.4733,-0.5802,-0.3735,-7.3263,-6.7253,-3.2672,1.0916,0.3893
1378.303,0.5073,7.9059,6.0299,0.21,-1.26,1.26,0.8327,-9.6622,-0.4211,-1.54,-2.03,-1.26,0.0239,-0.158,8.4707,-1.2672,-0.3817,-0.6947,-0.3831,-7.3741,-6.699,-3.2672,1.1908,0.3969
1468.732,0.4738,7.8963,6.0538,0.84,-1.26,1.05,0.871,-9.7484,-1.584,5.88,-1.12,-1.05,0.0096,-0.091,8.4755,-1.2214,-0.7405,-0.4122,-0.3184,-7.276,-6.6583,-3.1298,1.2443,0.5344
1588.612,0.4881,7.9394,6.0634,0.28,-1.19,1.26,0.7944,-9.6718,-0.4738,-7.28,-2.59,-1.19,0.0814,-0.146,8.6503,-1.3817,-0.4962,-0.5649,-0.2682,-7.4196,-6.7564,-3.3817,1.0992,0.4809
1678.543,0.4834,7.9059,6.0347,0.42,-1.26,0.98,0.8662,-9.6861,-1.6271,10.22,-0.56,-0.91,0.0551,-0.1197,8.5688,-1.4962,-0.5725,-0.4504,-0.3065,-7.2975,-6.6894,-3.0305,1.1908,0.3588
1768.724,0.5073,7.9298,6.0826,0.49,-1.12,1.19,0.8231,-9.7484,-0.6843,-8.12,-2.87,-1.26,0.0359,-0.1604,8.576,-1.2061,-0.3588,-0.4962,-0.2849,-7.3622,-6.6918,-3.313,1.2137,0.2901
1859.177,0.4499,7.9298,6.0203,0.7,-1.26,1.12,0.871,-9.6096,-1.1486,9.94,-0.7,-0.91,0.0096,-0.1197,8.5186,-1.3969,-0.6183,-0.3893,-0.3831,-7.3047,-6.6463,-3.2595,1.0458,0.374
1948.808,0.5121,7.9681,6.0586,0.84,-1.26,1.12,0.8327,-9.7101,-1.139,-6.58,-2.59,-1.19,0.0718,-0.1245,8.5497,-1.4504,-0.6183,-0.4733,-0.4357,-7.3406,-6.6128,-3.1832,1.0153,0.2748
2040.276,0.4786,7.8676,5.9916,-0.21,-1.19,0.98,0.8614,-9.6479,-0.8566,9.17,-0.77,-0.98,-0.0455,-0.1532,8.4779,-1.145,-0.6336,-0.4198,-0.3328,-7.3526,-6.7636,-3.229,1.1603,0.4198
2128.1,0.4786,7.9394,6.0682,0.91,-1.26,1.05,0.8518,-9.7388,-1.1055,-6.23,-2.52,-1.26,0.0599,-0.1748,8.5162,-1.4504,-0.5573,-0.6336,-0.3591,-7.3047,-6.7373,-3.4351,1.2137,0.3817
2218.376,0.4786,7.8628,5.9868,0.42,-1.26,1.19,0.8327,-9.6287,-0.7753,4.06,-1.33,-1.05,0.0311,-0.1221,8.497,-1.3893,-0.4656,-0.2901,-0.3903,-7.3071,-6.5673,-3.5191,1.0992,0.2061
2338.717,0.4738,7.9872,6.073,0.77,-1.26,0.98,0.871,-9.7484,-1.5936,-5.6,-1.68,-1.19,0.0168,-0.1365,8.4779,-1.2824,-0.6183,-0.5802,-0.3041,-7.2329,-6.7014,-3.2901,0.9924,0.3893
2428.338,0.4786,7.8724,6.0156,0.14,-1.33,1.26,0.8375,-9.6431,-0.4738,4.62,-1.26,-1.19,-0.0072,-0.146,8.4491,-1.3817,-0.5115,-0.7405,-0.2682,-7.3023,-6.7133,-3.2519,1.2519,0.2824
2518.722,0.4786,7.9537,6.0443,0.98,-1.33,0.98,0.8423,-9.7579,-1.7324,-0.21,-1.82,-0.98,-0.012,-0.1484,8.5329,-1.3893,-0.4504,-0.4504,-0.3448,-7.2688,-6.7014,-3.2061,1.0611,0.4885
2608.714,0.4834,7.8867,6.0491,0.0,-1.05,1.12,0.8136,-9.6718,-0.7083,-0.77,-1.96,-1.19,0.0168,-0.158,8.6119,-1.4733,-0.6794,-0.6641,-0.3807,-7.3334,-6.675,-3.1832,1.2595,0.3817
2698.502,0.4642,7.9298,6.0682,0.98,-1.4,0.91,0.8997,-9.7675,-1.608,4.27,-1.33,-1.12,-0.0048,-0.1197,8.679,-1.3969,-0.626,-0.7863,-0.3089,-7.3717,-6.6559,-3.0763,1.1298,0.3893
2788.588,0.5025,7.9298,6.0538,0.63,-1.19,1.33,0.7753,-9.6479,-0.3015,-17.64,-2.59,-1.33,0.0694,-0.0886,8.5066,-1.3664,-0.5267,-0.5725,-0.34,-7.2856,-6.6152,-3.2748,0.9542,0.4733
2879.913,0.4594,7.9298,6.0443,0.63,-1.26,0.91,0.8662,-9.7053,-1.8185,6.16,-0.49,-0.84,0.0024,-0.1365,8.5066,-1.4809,-0.7557,-0.5267,-0.2993,-7.355,-6.7038,-3.374,1.1145,0.5267
2998.194,0.4834,7.925,6.0443,0.49,-1.26,1.05,0.8088,-9.7101,-0.7753,-4.55,-2.38,-1.26,0.0048,-0.1125,8.5952,-1.3435,-0.4962,-0.3893,-0.3448,-7.3143,-6.6583,-3.3664,0.9466,0.4046
3091.281,0.469,7.9155,6.0395,1.05,-1.33,1.05,0.8614,-9.667,-1.2108,3.5,-1.54,-1.12,0.0335,-0.1628,8.5138,-1.4046,-0.5954,-0.4275,-0.3711,-7.2616,-6.7493,-3.2519,1.0763,0.313
3179.589,0.4834,7.9537,6.0203,0.7,-1.12,1.4,0.804,-9.667,-0.6461,-2.38,-2.17,-1.12,0.0551,-0.17,8.4587,-1.3359,-0.2595,-0.6641,-0.3711,-7.3454,-6.6631,-3.1298,1.1221,0.3053
3268.174,0.4786,7.9107,6.0395,0.14,-1.12,0.98,0.8518,-9.7005,-1.5218,9.1,-0.7,-0.84,0.0263,-0.17,8.4324,-1.3435,-0.6336,-0.626,-0.3184,-7.3287,-6.7804,-3.2672,1.313,0.6183
3358.688,0.4786,7.9442,6.0778,1.05,-1.33,1.12,0.8136,-9.7244,-0.8327,-5.11,-2.38,-1.26,-0.0527,-0.1197,8.5066,-1.3435,-0.8092,-0.4656,-0.316,-7.3574,-6.7229,-3.229,1.0382,0.4656
3448.585,0.4642,7.8867,6.0156,0.07,-1.19,1.19,0.8471,-9.6479,-1.1342,7.35,-1.12,-1.05,0.0407,-0.0982,8.4755,-1.3206,-0.5878,-0.4656,-0.3424,-7.3837,-6.7253,-3.1221,1.0611,0.2977
3538.689,0.5025,7.9537,6.0538,0.7,-1.4,0.98,0.8279,-9.7196,-1.206,-3.64,-2.17,-1.12,0.0,-0.1628,8.497,-1.3359,-0.5649,-0.7405,-0.3615,-7.343,-6.7086,-3.4122,0.4962,-0.1679
3628.621,0.4738,7.8867,6.0251,0.42,-1.05,1.19,0.8518,-9.6479,-0.7418,5.18,-1.26,-1.12,0.0766,-0.1269,8.4779,-1.4504,-0.7176,-0.5954,-0.3615,-7.3023,-6.766,-3.4351,0.6489,-0.1679
3749.307,0.4738,7.9442,6.0538,1.05,-1.47,1.05,0.8662,-9.7244,-1.4022,-1.82,-1.96,-1.12,0.0886,-0.146,8.5234,-1.4427,-0.5573,-0.6565,-0.3304,-7.3741,-6.5673,-3.3282,1.1679,0.4275
3838.561,0.4929,7.8867,6.0395,0.28,-1.26,1.05,0.8279,-9.6814,-0.9571,2.1,-1.61,-1.12,0.0311,-0.1748,8.5258,-1.4504,-0.3893,-0.542,-0.3687,-7.331,-6.7109,-3.2443,1.0534,0.3817
3929.979,0.4929,7.9633,6.0347,0.91,-1.4,0.98,0.8471,-9.7244,-1.2682,-1.19,-1.61,-1.05,0.0622,-0.1437,8.6335,-1.5878,-0.6565,-0.4046,-0.2945,-7.331,-6.7062,-3.3588,1.9466,1.4504
4019.88,0.4738,7.882,6.0251,0.07,-1.26,1.26,0.8279,-9.6287,-0.6126,3.08,-2.03,-1.12,0.0072,-0.103,8.521,-1.4122,-0.5954,-0.4351,-0.1987,-7.4148,-6.6774,-3.4733,0.7176,-0.0687
4108.633,0.469,7.9346,6.0395,0.84,-1.33,0.98,0.871,-9.7388,-1.6893,1.82,-1.54,-0.91,0.0048,-0.182,8.5425,-1.4427,-0.542,-0.3893,-0.3112,-7.3287,-6.6942,-3.3359,1.1298,0.374
4198.406,0.5025,7.9011,6.0251,0.28,-1.19,1.26,0.7896,-9.7005,-0.67,-2.8,-2.1,-1.26,-0.0072,-0.0862,8.4467,-1.2977,-0.7557,-0.5038,-0.5076,-7.1347,-6.7062,-2.9313,1.3359,0.3893
4290.035,0.4499,7.9442,6.0491,0.77,-1.33,0.98,0.8758,-9.7101,-1.584,6.02,-1.05,-0.98,0.0383,-0.1006,8.521,-1.3588,-0.5802,-0.3969,-0.2849,-7.3167,-6.6966,-3.1221,1.1527,0.5191
4409.553,0.4929,7.9059,6.0347,0.35,-1.26,1.19,0.8088,-9.6718,-0.6508,-5.25,-2.31,-1.26,-0.0072,-0.1006,8.5545,-1.4351,-0.5802,-0.4656,-0.3089,-7.3263,-6.7924,-3.1374,1.3893,0.6794
4498.365,0.4499,7.9298,6.0395,0.49,-1.4,0.98,0.8662,-9.7196,-1.4453,4.34,-0.98,-1.05,0.0886,-0.2227,8.4707,-1.1679,-0.3511,-0.5344,-0.3448,-7.2903,-6.7133,-3.0153,1.5954,0.8855
4588.037,0.5121,7.9729,6.0443,0.84,-1.33,1.05,0.7896,-9.7149,-0.804,-5.46,-2.45,-1.33,-0.0096,-0.1532,8.5856,-1.3664,-0.6336,-0.5725,0.1149,-7.0581,-6.8091,-5.0763,2.3893,1.9924
4680.563,0.469,7.9346,6.0347,0.42,-1.12,1.12,0.8518,-9.6622,-1.273,9.38,-0.7,-0.91,0.0527,-0.1389,8.5449,-1.229,-0.4198,-0.6489,-0.3711,-7.3382,-6.766,-3.0611,0.9924,0.1679
4770.084,0.4977,7.9059,6.0347,0.35,-1.05,1.12,0.804,-9.6814,-1.1103,-5.53,-2.45,-1.19,-0.0168,-0.0886,8.6407,-1.3282,-0.6641,-0.4885,-0.34,-7.3502,-6.6655,-3.084,1.0534,0.2595
4860.501,0.469,7.9202,6.0347,0.14,-1.19,1.05,0.8279,-9.6574,-1.1486,4.62,-1.26,-1.05,0.012,-0.1484,8.5305,-1.4351,-0.8015,-0.6718,-0.3208,-7.3119,-6.7157,-3.3053,1.2519,0.3664
4950.339,0.4881,7.9442,6.0491,1.26,-1.4,1.19,0.8423,-9.734,-1.1294,-3.36,-2.31,-1.26,0.1101,-0.1604,8.5377,-1.3206,-0.5496,-0.5573,-0.3472,-7.3263,-6.6679,-3.4046,1.1221,0.3359
5039.53,0.4881,7.8963,6.0203,-0.14,-1.12,1.12,0.8327,-9.6574,-0.9715,7.84,-1.26,-1.05,-0.1173,-0.1628,8.4443,-1.5191,-0.8168,-0.5954,-0.3256,-7.3287,-6.7277,-3.1985,1.1069,0.229
5159.898,0.4929,7.9777,6.0826,1.26,-1.26,1.05,0.804,-9.7579,-1.3208,-4.69,-2.38,-1.12,0.0694,-0.1604,8.5641,-1.1832,-0.6183,-0.626,-0.3232,-7.3119,-6.7493,-2.9084,1.1221,0.2824
5248.2,0.4786,7.9107,6.0251,17.78,-1.19,1.12,0.8231,-9.6383,-0.7035,4.69,-1.33,-1.12,0.0,-0.1652,8.4803,-1.4504,-0.855,-0.6489,-0.3112,-7.3694,-6.6822,-3.626,0.2901,-0.3435
5338.584,0.5121,7.9968,6.1065,1.05,-1.47,0.21,0.8614,-9.7388,-1.5075,0.49,-1.68,-1.12,-0.0527,-0.1963,8.5186,-1.3893,-0.3969,-0.6107,-0.3112,-7.3526,-6.7756,-3.0229,0.8779,0.1679
5427.876,0.4881,7.9298,6.0682,0.28,-1.26,1.54,0.8231,-9.5904,-0.6413,-3.92,-2.24,-1.19,0.0168,-0.1221,8.4683,-1.4198,-0.6718,-0.458,-0.3831,-7.4005,-6.7181,-3.3511,1.2901,0.4351
5518.412,0.4834,8.0016,6.0682,1.12,-1.47,0.84,0.8806,-9.7149,-1.4261,4.27,-1.33,-1.12,0.0622,-0.1532,8.5545,-1.4504,-0.458,-0.5191,-0.2849,-7.2903,-6.6176,-3.4198,1.1756,0.3588
5608.668,0.4929,7.8963,6.0395,-0.63,-0.98,1.19,0.7992,-9.667,-0.6796,-0.07,-2.24,-1.19,0.0024,-0.1245,8.5401,-1.5267,-0.5878,-0.5878,-0.3735,-7.2951,-6.7756,-3.1527,1.1603,0.3282
5700.241,0.4786,7.9585,6.0443,0.98,-1.33,0.98,0.8518,-9.7436,-1.6128,2.38,-1.61,-0.98,0.067,-0.1556,8.5353,-1.5725,-0.3359,-0.5496,-0.3041,-7.2999,-6.7301,-3.3359,1.0305,0.4885
5820.846,0.5168,7.925,6.0108,0.84,-1.26,1.19,0.7848,-9.6622,-0.5695,-3.92,-2.24,-1.33,0.0192,-0.1053,8.5617,-1.3359,-0.7023,-0.5954,-0.3759,-7.3646,-6.6391,-3.2366,1.0382,0.4122
5911.117,0.4642,7.925,6.0347,0.28,-1.26,0.98,0.8806,-9.7244,-1.3831,8.12,-0.91,-0.98,0.0144,-0.1125,8.4276,-1.542,-0.6412,-0.7939,-0.3543,-7.331,-6.7732,-3.2366,1.1908,0.3282
5998.025,0.4929,7.949,6.0586,0.98,-1.33,1.12,0.8136,-9.6909,-0.7035,-6.51,-2.52,-1.26,-0.0239,-0.0694,8.5305,-1.2061,-0.7252,-0.5878,-0.4118,-7.3646,-6.7445,-2.9389,1.145,0.4046
6088.081,0.4738,7.9011,6.0251,0.28,-1.19,1.26,0.8662,-9.6574,-1.2443,8.61,-0.84,-0.98,0.1053,-0.1484,8.5018,-1.4733,-0.3511,-0.5573,-0.3998,-7.3646,-6.7852,-3.374,1.0763,0.4427
6178.306,0.4834,7.9585,6.0299,0.42,-1.12,1.05,0.8423,-9.7101,-1.0528,-6.72,-2.45,-1.26,0.0646,-0.1245,8.5114,-1.3206,-0.4046,-0.3969,-0.2921,-7.3646,-6.6966,-3.2824,1.1221,0.3664
6272.526,0.4738,7.9059,6.0156,0.84,-1.26,1.19,0.8518,-9.6574,-0.9428,7.35,-0.98,-0.98,0.0144,-0.0862,8.4922,-1.3435,-0.8321,-0.5649,-0.3065,-7.2856,-6.7301,-3.2061,1.0611,0.2748
6358.285,0.4738,7.9585,6.0443,1.47,-1.4,1.12,0.8327,-9.7244,-1.2586,-5.11,-2.38,-1.19,0.0527,-0.2035,8.5569,-1.2061,-0.4885,-0.5191,-0.34,-7.3215,-6.699,-3.3053,1.1298,0.5267
6447.992,0.469,7.8963,6.0012,-0.42,-1.12,0.91,0.8423,-9.6766,-0.7992,5.11,-1.26,-0.98,0.0215,-0.1389,8.4874,-1.2977,-0.5725,-0.5344,-0.3041,-7.3095,-6.7014,-3.1908,1.0229,0.1908
6658.117,0.469,7.882,6.0156,-0.21,-1.05,1.26,0.8231,-9.6191,-0.5886,5.39,-1.96,-1.12,-0.0024,-0.1341,8.576,-1.4122,-0.687,-0.5038,-0.328,-7.331,-6.6152,-3.2901,1.0305,0.4733
6748.194,0.4738,7.9633,6.0443,1.05,-1.47,0.84,0.871,-9.7675,-1.6845,-2.38,-1.33,-1.12,0.0359,-0.1269,8.4851,-1.458,-0.4962,-0.4046,-0.328,-7.2903,-6.7924,-3.1832,1.1908,0.4962
6838.416,0.4881,7.9107,6.0251,0.21,-0.98,1.26,0.8136,-9.667,-0.3876,-0.14,-1.82,-1.26,-0.0215,-0.1077,8.4827,-1.4198,-0.5496,-0.4122,-0.3591,-7.3526,-6.7852,-3.1527,1.1221,0.3664
6928.252,0.4881,7.9442,6.0347,0.84,-1.26,0.98,0.8662,-9.7149,-1.651,4.34,-1.26,-1.12,0.0814,-0.1796,8.4707,-1.313,-0.5191,-0.6183,-0.3687,-7.3167,-6.7301,-3.0534,1.1221,0.4427
7018.826,0.469,7.882,6.0156,-0.07,-1.05,1.12,0.804,-9.6622,-0.7561,-3.78,-2.24,-1.12,-0.0599,-0.0838,8.521,-1.542,-0.5878,-0.5267,-0.3112,-7.3239,-6.6391,-3.458,1.0229,0.4351
7109.054,0.4738,7.9394,6.0395,1.05,-1.47,0.84,0.8662,-9.7244,-1.541,6.09,-1.26,-0.98,0.0527,-0.1269,8.5258,-1.4809,-0.4504,-0.6565,-0.3448,-7.3263,-6.754,-3.1298,1.2214,0.374
7228.244,0.5121,7.9442,6.0251,0.56,-1.4,1.12,0.804,-9.667,-0.67,-3.36,-2.52,-1.26,0.0622,-0.1269,8.5449,-1.4733,-0.6794,-0.5267,-0.3543,-7.3334,-6.6798,-3.3588,1.2519,0.5191
7318.395,0.4451,7.9107,6.0012,0.49,-1.26,0.91,0.8758,-9.7005,-1.5314,9.1,-0.49,-0.98,0.0383,-0.1341,8.5353,-1.4885,-0.3435,-0.7252,-0.3065,-7.2856,-6.7086,-3.229,1.1908,0.374
7408.316,0.4881,7.9298,6.0538,0.56,-1.26,1.05,0.7992,-9.7101,-0.8183,-9.03,-2.87,-1.26,0.0622,-0.1413,8.4659,-1.1908,-0.5573,-0.6947,-0.3065,-7.3215,-6.7493,-3.3817,1.1603,0.2901
7499.008,0.4834,7.9394,6.006,0.28,-1.26,1.05,0.8614,-9.7005,-1.0768,8.4,-0.84,-0.84,0.0287,-0.0814,8.4922,-1.2901,-0.3664,-0.4275,-0.3639,-7.3502,-6.6535,-3.2519,1.1603,0.4198
7590.232,0.4881,7.9442,6.0586,0.7,-1.33,0.98,0.8423,-9.7196,-2.1823,-5.25,-2.31,-1.19,0.0742,-0.1317,8.5545,-1.3893,-0.6183,-0.5649,-0.4453,-7.331,-6.7277,-3.2595,0.8702,0.3664
7680.2,0.4642,7.8915,6.0203,0.35,-1.4,1.19,0.8279,-9.6574,-1.1486,6.86,-0.98,-1.05,-0.0072,-0.1604,8.6694,-1.4504,-0.7405,-0.3817,-0.3304,-7.2808,-6.8259,-3.1527,1.2748,0.313
7768.191,0.4834,7.9825,6.0443,0.7,-1.54,0.91,0.8088,-9.7292,-1.1055,-8.19,-2.38,-1.26,0.0144,-0.1484,8.497,-1.4046,-0.4504,-0.5725,-0.3783,-7.3167,-6.7325,-3.3817,0.8855,0.3588
7858.947,0.4738,7.882,5.9821,-0.56,-0.98,1.05,0.8566,-9.6335,-0.8279,7.49,-0.91,-1.05,0.0455,-0.0982,8.5234,-1.3893,-0.4275,-0.6641,-0.3472,-7.3023,-6.7086,-3.0916,1.0763,0.3588
8008.344,0.5025,7.9968,6.0586,1.19,-1.47,1.05,0.8375,-9.7292,-1.5266,-3.99,-2.24,-1.05,0.0096,-0.1867,8.5784,-1.3893,-0.6336,-0.6794,-0.2777,-7.3287,-6.7181,-3.2977,1.1069,0.4962
8068.087,0.4881,7.925,6.0203,0.21,-1.12,1.19,0.8279,-9.6431,-0.6078,3.08,-1.4,-1.05,0.0287,-0.1604,8.5593,-1.2595,-0.4885,-0.4733,-0.3232,-7.3071,-6.8331,-3.374,0.9771,0.4427
8158.782,0.4977,7.9442,6.0443,0.91,-1.33,0.91,0.8566,-9.7819,-1.541,0.84,-1.68,-1.12,0.0239,-0.1173,8.4922,-1.4427,-0.542,-0.4809,-0.3208,-7.3287,-6.6439,-3.145,1.2443,0.4351
8248.159,0.4881,7.9155,6.0347,0.28,-1.26,1.19,0.8183,-9.6622,-0.5934,-1.96,-2.03,-1.12,0.0934,-0.17,8.442,-1.2214,-0.5954,-0.5191,-0.2825,-7.343,-6.6822,-3.084,1.0534,0.3206
8368.701,0.4929,7.9729,6.0538,1.19,-1.47,0.91,0.8806,-9.7196,-1.5936,0.14,-1.12,-1.05,-0.0527,-0.1101,8.521,-1.4504,-0.7481,-0.4962,-0.3232,-7.331,-6.6798,-3.2137,1.0763,0.3893
8428.198,0.4881,7.9155,6.0156,0.14,-1.12,1.12,0.7848,-9.6766,-0.5791,-1.19,-1.96,-1.19,0.0335,-0.1867,8.5186,-1.3511,-0.3588,-0.6489,-0.3112,-7.2903,-6.7971,-3.2977,1.1374,0.4122
8520.1,0.4881,7.9585,6.0443,0.63,-1.26,0.98,0.8471,-9.7388,-1.4692,3.92,-1.4,-0.98,-0.0311,-0.1317,8.5066,-1.3282,-0.7252,-0.5496,-0.4142,-7.2999,-6.6726,-3.145,1.1832,0.3053
8639.492,0.5073,7.9155,6.0299,0.42,-1.19,1.19,0.804,-9.6766,-0.8901,-2.03,-2.03,-1.19,-0.0144,-0.1772,8.576,-1.5878,-0.8168,-0.4351,-0.3783,-7.2903,-6.675,-3.3053,1.0916,0.4122
8727.954,0.4881,7.925,6.0203,0.28,-1.26,1.12,0.8423,-9.7005,-1.2538,3.08,-1.33,-1.05,-0.0024,-0.1748,8.6048,-1.2366,-0.5115,-0.6031,-0.2993,-7.276,-6.6655,-3.3206,1.1756,0.3206
8822.026,0.4834,7.9681,6.0347,1.05,-1.47,0.91,0.8327,-9.6909,-0.8758,-3.71,-2.17,-1.26,0.0383,-0.1628,8.5449,-1.458,-0.5878,-0.5725,-0.2921,-7.3358,-6.6439,-3.2977,1.0382,0.4275
8910.947,0.4834,7.9202,6.006,0.14,-1.19,1.12,0.8136,-9.6191,-1.2203,8.54,-0.91,-0.91,0.0311,-0.0886,8.442,-1.4504,-0.2977,-0.6718,-0.3232,-7.3167,-6.7133,-3.2137,0.9618,0.2672
8999.764,0.4786,7.9633,6.0634,0.98,-1.33,1.05,0.8231,-9.7484,-1.2538,-8.19,-2.73,-1.26,-0.0263,-0.1484,8.576,-1.4885,-0.5573,-0.7328,-0.3232,-7.3717,-6.6726,-3.313,1.2214,0.4275
9091.021,0.4881,7.9346,6.0156,0.21,-1.26,1.05,0.8183,-9.6766,-0.8327,6.86,-0.98,-1.05,0.0718,-0.1844,8.5353,-1.2443,-0.4504,-0.3206,-0.3998,-7.3909,-6.6846,-3.0305,1.1069,0.4962
9182.338,0.4881,7.9633,6.0299,0.98,-1.4,1.12,0.8423,-9.734,-1.3831,-3.01,-2.1,-1.19,0.0096,-0.1796,8.6119,-1.3435,-0.4962,-0.6489,-0.3711,-7.2808,-6.8283,-3.5344,1.1069,0.4656
9273.421,0.4929,7.8963,6.006,0.0,-0.98,1.26,0.8375,-9.6574,-0.8901,2.31,-1.54,-1.05,0.0,-0.0862,8.6,-1.3435,-0.6336,-0.5725,-0.3663,-7.3071,-6.7301,-3.2748,1.2214,0.4351
9388.574,0.4786,7.9729,6.0586,1.26,-1.61,0.77,0.8566,-9.734,-1.4453,16.03,-1.61,-0.98,0.0311,-0.1125,8.5329,-1.4504,-0.5802,-0.5115,-0.3591,-7.3358,-6.7181,-3.1908,1.2824,0.5038
9478.789,0.4786,7.8915,6.0251,0.0,-1.05,1.12,0.8279,-9.6622,-0.6652,1.68,-2.17,-1.26,-0.0551,-0.1149,8.6,-1.3511,-0.6031,-0.4504,-0.3472,-7.3215,-6.7014,-3.4656,1.1603,0.4351
9568.064,0.4642,7.949,6.0395,0.56,-1.33,0.84,0.871,-9.7484,-1.6463,1.19,-1.68,-0.98,0.1006,-0.1269,8.5425,-1.4122,-0.687,-0.3969,-0.3352,-7.2903,-6.7349,-3.229,1.1145,0.3359
9657.976,0.5121,7.9059,6.0299,0.56,-1.12,1.12,0.8231,-9.6287,-0.6317,-3.29,-2.17,-1.26,-0.0024,-0.1101,8.5186,-1.3053,-0.4275,-0.4656,-0.3496,-7.288,-6.6367,-3.3206,1.0305,0.4351
9839.938,0.5025,7.9537,6.0156,0.07,-1.12,1.12,0.8279,-9.6861,-0.7178,-5.88,-2.45,-1.19,0.0144,-0.1245,8.4396,-1.3435,-0.687,-0.5573,-0.3759,-7.3071,-6.766,-3.3206,1.1298,0.3664
9929.7,0.469,7.949,6.0251,0.7,-1.33,0.98,0.8566,-9.6957,-1.3543,5.53,-0.98,-1.05,0.0,-0.146,8.5928,-1.3511,-0.4504,-0.5267,-0.2921,-7.288,-6.7253,-3.2672,1.1298,0.2977
10050.71,0.5121,7.9585,6.0108,0.77,-1.26,1.12,0.8231,-9.7053,-0.9667,-3.22,-2.17,-1.12,0.0263,-0.1269,8.5234,-1.4733,-0.626,-0.5878,-0.2729,-7.2951,-6.6918,-3.3588,1.0382,0.3282
10139.894,0.4594,7.9298,6.0251,0.21,-1.26,0.98,0.8614,-9.6479,-1.1677,6.72,-1.05,-0.98,-0.0192,-0.1053,8.5305,-1.4885,-0.7099,-0.5725,-0.3112,-7.2281,-6.6104,-3.3969,1.145,0.5267
10231.995,0.4929,7.9394,6.0395,1.12,-1.33,0.98,0.8279,-9.6957,-1.34,-2.38,-2.17,-1.12,-0.0311,-0.1245,8.5593,-1.2672,-0.6641,-0.4046,-0.3496,-7.3239,-6.7038,-3.3511,1.0534,0.3588
10323.378,0.4642,7.8963,6.0012,-0.07,-1.19,1.19,0.8662,-9.667,-0.7657,3.22,-1.47,-1.05,0.0407,-0.1508,8.5186,-1.458,-0.4962,-0.7634,-0.328,-7.2903,-6.766,-3.1298,1.0382,0.3817
10410.527,0.4738,7.949,6.0538,1.26,-1.33,0.91,0.8758,-9.734,-1.3448,0.63,-1.61,-1.12,-0.0168,-0.1197,8.3845,-1.374,-0.7099,-0.3511,-0.3807,-7.2975,-6.7732,-3.0992,1.2824,0.4046
10501.79,0.5025,7.925,6.0108,0.35,-1.26,1.12,0.804,-9.6144,-0.804,1.75,-1.89,-1.05,-0.0144,-0.1891,8.5425,-1.5954,-0.4351,-0.2824,-0.3256,-7.3167,-6.62,-3.2672,1.0916,0.458
10589.65,0.4786,7.9777,6.0443,0.7,-1.26,1.05,0.871,-9.7244,-1.3878,2.24,-1.33,-1.05,0.0215,-0.1604,8.5832,-1.2901,-0.5802,-0.4809,-0.3735,-7.3095,-6.6248,-3.313,1.1985,0.3588
10680.32,0.4929,7.9011,6.0156,-0.14,-1.12,1.12,0.8088,-9.6718,-0.804,-3.15,-2.17,-1.19,0.0024,-0.1772,8.5593,-1.3359,-0.5267,-0.5115,-0.2993,-7.2401,-6.6607,-3.0763,1.1679,0.3893
10799.011,0.4642,7.9442,6.0538,1.33,-1.47,0.84,0.8566,-9.7292,-1.2443,2.66,-1.47,-0.98,0.0096,-0.103,8.5593,-1.4122,-0.5649,-0.4427,-0.3519,-7.2832,-6.7301,-3.2519,1.3282,0.4275
10891.409,0.4834,7.9011,6.0012,-0.21,-1.12,1.12,0.804,-9.6814,-0.7992,-2.94,-2.1,-1.19,0.0862,-0.1293,8.5329,-1.5115,-0.6031,-0.5954,-0.3352,-7.2808,-6.7277,-3.374,1.1145,0.5344
10978.771,0.4594,7.9681,6.0299,1.12,-1.33,0.91,0.8662,-9.7244,-1.3352,4.55,-1.26,-1.12,0.1006,-0.1915,8.6862,-1.2443,-0.6336,-0.4351,-0.328,-7.2975,-6.6295,-3.3435,1.1145,0.1298
11068.164,0.4977,7.9346,6.0156,0.77,-1.26,1.19,0.8231,-9.6622,-0.9523,-2.66,-2.17,-1.12,0.1796,-0.146,8.4994,-1.3282,-0.6183,-0.5573,-0.3496,-7.3191,-6.6272,-3.229,1.2595,0.6794
11159.713,0.4786,7.9394,6.0203,0.21,-1.26,0.98,0.8614,-9.7101,-1.273,2.94,-1.26,-0.98,0.0,-0.0886,8.4994,-1.5649,-0.7634,-0.5878,-0.3591,-7.3358,-6.6966,-3.4427,1.1145,0.2443
11248.896,0.4977,7.9633,6.0347,0.77,-1.4,0.98,0.7944,-9.7244,-1.0816,-2.52,-2.1,-1.12,-0.0407,-0.1891,8.5401,-1.5573,-0.7328,-0.6336,-0.3041,-7.2784,-6.7109,-2.7939,1.3588,0.4198
11340.044,0.469,7.9011,5.9916,0.35,-1.26,1.26,0.8662,-9.5761,-0.5743,-5.67,-2.03,-1.47,-0.0383,-0.1149,8.5521,-1.2519,-0.5038,-0.4275,-0.3208,-7.3167,-6.6822,-3.1527,1.1603,0.1679
11458.266,0.5168,7.9681,6.0395,0.56,-1.4,1.05,0.8279,-9.7196,-0.6413,-0.7,-1.82,-1.05,0.0551,-0.1101,8.5736,-1.5038,-0.4198,-0.5802,-0.3543,-7.2832,-6.7397,-3.4962,1.0229,0.4275
11638.71,0.4834,7.9633,6.0299,1.12,-1.33,1.05,0.8423,-9.734,-1.3017,-1.4,-1.68,-1.05,-0.0024,-0.1508,8.5904,-1.2824,-0.4885,-0.6031,-0.3089,-7.2736,-6.7325,-3.1527,1.2519,0.2366
11728.836,0.469,7.8963,6.0156,-0.21,-1.05,1.12,0.8471,-9.667,-0.8949,3.71,-1.4,-1.05,0.0287,-0.1197,8.4132,-1.374,-0.4962,-0.5573,-0.3855,-7.3047,-6.675,-3.2519,1.1679,0.4351
11818.442,0.4834,7.9585,6.0586,1.12,-1.4,0.98,0.8758,-9.7388,-1.4596,0.07,-1.82,-0.98,0.0168,-0.1077,8.6095,-1.2748,-0.6336,-0.4046,-0.3184,-7.3143,-6.7421,-3.2672,1.1985,0.3511
11998.898,0.4881,7.9537,6.0395,0.77,-1.19,0.98,0.8518,-9.734,-1.4405,2.24,-1.54,-1.12,0.0455,-0.1365,8.5018,-1.3969,-0.8244,-0.4198,-0.3831,-7.3119,-6.7109,-3.1145,1.0992,0.2901
12088.376,0.5121,7.9059,6.0347,0.63,-1.26,1.05,0.7944,-9.6814,-0.6556,-4.97,-2.38,-1.26,-0.0024,-0.1077,8.4228,-1.3588,-0.542,-0.3282,-0.3304,-7.3119,-6.8498,-3.3282,1.0916,0.458
12208.425,0.4738,7.992,6.0156,0.98,-1.33,0.98,0.7944,-9.6957,-0.9045,-4.34,-2.31,-1.26,-0.0168,-0.1293,8.5617,-1.1908,-0.6183,-0.5038,-0.3926,-7.331,-6.7421,-3.3511,1.0458,0.5649
12390.946,0.4738,7.9442,6.0299,0.56,-1.33,1.05,0.8806,-9.6909,-1.2299,4.62,-1.33,-1.05,-0.0048,-0.1101,8.4731,-1.3053,-0.4656,-0.4351,-0.395,-7.3047,-6.6511,-3.1756,1.1069,0.3511
12482.891,0.5025,7.9537,6.0299,0.7,-1.47,1.05,0.8231,-9.6574,-0.9571,-3.57,-2.24,-1.26,-0.0144,-0.1772,8.6574,-1.4198,-0.6794,-0.6031,-0.2849,-7.276,-6.7038,-3.229,1.0153,0.374
12571.259,0.4834,7.8963,6.006,-0.14,-1.12,0.91,0.871,-9.6766,-1.3878,6.72,-1.12,-0.84,-0.0072,-0.1293,8.6024,-1.4351,-0.542,-0.6947,-0.3783,-7.3358,-6.7277,-3.145,1.1374,0.3282
12660.113,0.5025,7.9825,6.0395,1.05,-1.33,1.05,0.8471,-9.7292,-1.0289,-3.71,-2.31,-1.19,0.0215,-0.1748,8.6119,-1.4733,-0.9237,-0.5802,-0.3424,-7.2808,-6.6966,-3.3053,1.0763,0.2366
12750.337,0.4881,7.8915,6.006,0.14,-1.26,1.12,0.8088,-9.6814,-0.9428,5.04,-1.61,-1.05,0.0646,-0.1652,8.5784,-1.4504,-0.6031,-0.5573,-0.3424,-7.3215,-6.7397,-3.1298,1.2519,0.313
12869.939,0.4977,7.949,6.0443,1.12,-1.47,0.91,0.8423,-9.734,-1.2538,-3.36,-1.89,-0.98,0.0048,-0.1125,8.5305,-1.6031,-0.7176,-0.6641,-0.3687,-7.331,-6.7732,-3.3206,1.0687,0.3893
12960.319,0.4834,7.8867,5.9868,0.21,-1.12,1.19,0.8231,-9.6574,-0.8183,3.08,-1.54,-1.05,0.0527,-0.2131,8.4683,-1.2137,-0.5191,-0.5954,-0.3663,-7.2616,-6.6295,-3.2366,1.2901,0.4427
13051.579,0.4786,7.9585,6.0347,1.33,-1.33,1.05,0.8423,-9.734,-1.517,-0.49,-1.89,-1.19,0.0407,-0.1891,8.4946,-1.3206,-0.9618,-0.4733,-0.3543,-7.2688,-6.7469,-3.0076,1.1679,0.4351
13139.436,0.4786,7.882,6.0156,0.07,-1.19,1.05,0.804,-9.7053,-0.7274,-1.82,-1.96,-1.19,0.0455,-0.1149,8.6598,-1.4198,-0.6336,-0.4275,-0.3567,-7.3143,-6.7421,-3.2748,1.1145,0.4198
13230.953,0.4881,7.9729,6.0251,0.63,-1.33,0.98,0.8662,-9.7196,-1.5027,17.78,-1.33,-1.05,0.0287,-0.1125,8.5808,-1.5038,-0.6183,-0.687,-0.3184,-7.2544,-6.7636,-3.0229,1.0611,0.2672
13321.898,0.4977,7.9202,6.0203,0.42,-1.12,1.19,0.7992,-9.667,-0.7083,0.91,-2.17,-1.19,0.0096,-0.1389,8.5976,-1.4122,-0.3664,-0.8168,-0.3232,-7.3574,-6.6894,-3.2443,0.9389,0.3969
13439.284,0.4738,7.9155,6.0108,0.56,-1.26,1.05,0.8614,-9.7053,-1.5266,2.94,-1.47,-0.98,-0.0215,-0.1532,8.5018,-1.3206,-0.374,-0.5573,-0.3376,-7.2592,-6.8067,-3.3206,1.2061,0.3969
13498.222,0.5312,7.9729,6.0251,0.7,-1.19,1.05,0.7944,-9.7005,-0.8997,-5.25,-2.38,-1.33,0.0168,-0.0958,8.5258,-1.3206,-0.8168,-0.4198,-0.3328,-7.2688,-6.766,-3.2672,0.9924,0.2824
13708.631,0.4929,7.9394,6.0251,0.7,-1.19,0.98,0.8183,-9.7196,-0.8423,-6.51,-2.52,-1.19,0.0024,-0.1221,8.5473,-1.4351,-0.5191,-0.2748,-0.3687,-7.288,-6.7109,-3.2137,1.2824,0.3511
13800.451,0.4786,7.9202,6.006,0.21,-1.26,1.12,0.8375,-9.6814,-1.1533,7.56,-1.19,-0.98,0.0766,-0.103,8.5353,-1.3511,-0.4962,-0.5267,-0.3424,-7.3215,-6.7253,-3.1298,1.0916,0.4427
13891.438,0.4786,7.9777,6.0538,1.26,-1.47,1.12,0.8566,-9.7053,-1.1868,-6.23,-2.03,-1.19,0.0383,-0.1365,8.4515,-1.4275,-0.5725,-0.4809,-0.3136,-7.3119,-6.687,-3.374,0.9695,0.3435
13980.838,0.4834,7.9107,6.0012,-0.28,-1.19,1.05,0.8471,-9.6718,-0.8997,5.81,-1.26,-0.98,0.0287,-0.1101,8.4874,-1.4427,-0.5344,-0.6641,-0.3567,-7.2664,-6.7516,-3.1832,1.0611,0.4504
14072.968,0.4834,7.9681,6.0156,0.98,-1.33,1.05,0.8471,-9.7196,-1.4644,-3.08,-2.1,-1.26,0.0096,-0.1437,8.5018,-1.3359,-0.6412,-0.5267,-0.34,-7.3023,-6.7516,-3.1603,1.0076,0.2672
14158.19,0.4929,7.9298,5.9773,0.28,-1.26,1.19,0.8566,-9.7388,-1.4644,1.75,-1.54,-1.19,0.0,-0.0958,8.6191,-1.3588,-0.4809,-0.687,-0.3496,-7.3287,-6.7612,-3.2824,1.2824,0.3664
14368.717,0.4929,7.925,6.0251,0.35,-1.47,0.91,0.7896,-9.6766,-0.6078,1.47,-2.17,-1.26,0.0551,-0.1676,8.5018,-1.4733,-0.458,-0.7252,-0.3519,-7.2544,-6.7014,-3.1908,1.2748,0.2595
14458.588,0.4594,7.9394,6.0395,0.77,-1.33,0.98,0.8518,-9.6814,-1.5075,3.08,-1.05,-0.91,-0.0168,-0.1053,8.5018,-1.2748,-0.7939,-0.5496,-0.3855,-7.3478,-6.8115,-3.145,1.084,0.2519
14582.499,0.4834,7.9633,6.0156,0.28,-1.26,1.12,0.7801,-9.7101,-0.8327,-3.43,-2.24,-1.26,0.1006,-0.1149,8.4898,-1.3359,-0.6412,-0.3893,-0.2945,-7.2664,-6.6391,-3.1145,1.0992,0.3282
14640.341,0.4834,7.9681,6.0012,0.98,-1.33,0.98,0.8566,-9.6574,-1.2156,5.95,-1.19,-0.91,-0.0024,-0.103,8.5593,-1.2748,-0.2595,-0.4656,-0.3184,-7.3263,-6.6415,-3.0,1.1603,0.3359
14731.636,0.5121,7.9585,6.0251,0.98,-1.33,1.12,0.8183,-9.6622,-0.7944,-4.06,-2.24,-1.26,0.0287,-0.1628,8.5186,-1.3588,-0.5115,-0.5725,-0.3615,-7.2736,-6.7133,-3.3053,1.1527,0.5267
14822.251,0.4642,7.8915,5.9868,-0.07,-1.12,0.98,0.8758,-9.7005,-1.3735,7.35,-0.91,-0.91,-0.0455,-0.1197,8.5353,-1.4275,-0.687,-0.5496,-0.2993,-7.3239,-6.6918,-3.2595,1.1832,0.2748
14910.408,0.5121,7.9681,6.0634,1.05,-1.4,1.05,0.8566,-9.734,-1.0146,-6.23,-2.31,-1.26,-0.0192,-0.1413,8.4827,-1.313,-0.3435,-0.4962,-0.3639,-7.2784,-6.7756,-3.2748,0.9389,0.5038
15030.34,0.4786,7.9155,5.9916,0.21,-1.33,1.19,0.8375,-9.6574,-0.9811,6.02,-1.19,-0.98,-0.012,-0.1724,8.5449,-1.1756,-0.542,-0.4351,-0.328,-7.2999,-6.7205,-3.1756,1.1221,0.3053
15151.806,0.4834,7.9681,6.0347,0.84,-1.33,1.05,0.8518,-9.7436,-1.3974,-3.36,-2.1,-1.12,0.0072,-0.1508,8.576,-1.3053,-0.6183,-0.5344,-0.328,-7.2544,-6.6798,-3.0687,1.145,0.4275
15210.202,0.5168,7.9298,6.006,0.07,-1.19,1.19,0.8231,-9.6335,-0.7035,3.5,-1.47,-0.98,0.0814,-0.1006,8.6048,-1.4198,-0.4504,-0.5878,-0.34,-7.288,-6.687,-3.313,1.3893,0.2595
15300.042,0.4977,7.992,6.0443,0.84,-1.33,0.98,0.8471,-9.7149,-1.5027,1.47,-1.61,-1.19,0.0048,-0.146,8.5569,-1.5115,-0.4275,-0.6412,-0.3926,-7.2712,-6.6248,-3.3664,1.0992,0.3588
15389.492,0.4977,7.9107,6.0012,-0.07,-0.98,1.05,0.8183,-9.667,-0.7705,-1.4,-1.96,-1.26,0.0359,-0.182,8.5665,-1.2595,-0.3664,-0.4122,-0.3256,-7.3287,-6.7516,-3.2519,1.145,0.5191
15480.771,0.4642,7.9442,6.0395,1.19,-1.47,0.98,0.8566,-9.7101,-1.4357,0.98,-1.26,-0.98,0.012,-0.091,8.5712,-1.3511,-0.5725,-0.4962,-0.3687,-7.3023,-6.7876,-3.1985,0.9924,0.3359
15571.802,0.5121,7.9202,5.9821,0.28,-1.26,1.19,0.8183,-9.6766,-0.7226,-0.84,-1.89,-1.26,0.0718,-0.1532,8.5976,-1.3893,-0.7023,-0.4733,-0.2729,-7.3143,-6.7325,-3.1908,1.1527,0.374
15689.902,0.4642,7.9346,6.0299,0.35,-1.19,0.84,0.8949,-9.7484,-1.4644,4.27,-1.33,-0.91,0.0192,-0.1006,8.521,-1.313,-0.5115,-0.5115,-0.3519,-7.2999,-6.7109,-3.2519,1.0992,0.4351
15780.706,0.4881,7.9346,6.0108,0.7,-1.19,1.05,0.7944,-9.6766,-0.9428,-5.53,-2.38,-1.26,0.0503,-0.158,8.6119,-1.4046,-0.5344,-0.5344,-0.3496,-7.2712,-6.7181,-3.1756,1.1908,0.3893
15868.629,0.4929,7.9155,5.9677,0.35,-1.33,1.05,0.8614,-9.6383,-1.3974,7.42,-0.91,-0.98,0.0575,-0.1437,8.5808,-1.3359,-0.5954,-0.5496,-0.3376,-7.367,-6.7612,-3.2901,1.229,0.2901
15958.131,0.4786,7.9729,6.0395,0.7,-1.19,1.05,0.8566,-9.7436,-1.0672,-3.71,-2.31,-1.12,-0.0024,-0.0742,8.521,-1.3435,-0.6489,-0.4962,-0.3136,-7.3837,-6.6559,-3.1603,1.1145,0.374
16048.306,0.4738,7.9202,6.0443,0.42,-1.33,1.12,0.8327,-9.667,-1.0146,5.32,-1.47,-1.05,0.0383,-0.146,8.5449,-1.4122,-0.7481,-0.6794,-0.3639,-7.288,-6.8283,-3.3282,1.145,0.2977
16138.05,0.4738,7.9777,6.0251,0.63,-1.4,1.19,0.8231,-9.7244,-1.273,-2.52,-2.1,-1.12,0.0646,-0.1006,8.5066,-1.3893,-0.3969,-0.4504,-0.3424,-7.2808,-6.7445,-3.2137,1.084,0.4427
16260.575,0.4738,7.925,6.0012,-0.21,-1.12,1.05,0.8327,-9.667,-0.8088,2.87,-1.47,-1.12,-0.0096,-0.1149,8.4515,-1.3435,-0.6489,-0.2366,-0.3304,-7.3095,-6.6822,-3.2443,1.0458,0.3969
16318.653,0.4834,7.9681,6.0156,1.19,-1.47,0.91,0.8423,-9.7053,-1.3831,-0.07,-1.89,-1.12,0.091,-0.0766,8.5569,-1.4275,-0.5954,-0.6107,-0.3472,-7.2927,-6.6679,-3.1832,1.0763,0.3511
16439.975,0.4977,7.9155,6.006,0.0,-1.19,1.19,0.8279,-9.667,-0.7944,-0.84,-1.89,-1.12,-0.0263,-0.1365,8.5569,-1.458,-0.4351,-0.3817,-0.34,-7.3334,-6.6918,-3.3206,0.9618,0.2824
16532.464,0.4881,7.9202,6.0299,0.56,-1.33,0.91,0.8901,-9.734,-1.675,0.28,-1.26,-0.91,0.0862,-0.1484,8.5138,-1.3511,-0.5573,-0.458,-0.3615,-7.331,-6.7325,-3.2214,1.2901,0.3511
16618.646,0.5121,7.925,6.0203,0.42,-1.26,1.26,0.7657,-9.6718,-0.5838,-2.52,-2.45,-1.4,0.0718,-0.146,8.5258,-1.4198,-0.4504,-0.374,-0.3926,-7.2712,-6.6272,-3.1145,1.145,0.3282
16709.916,0.4929,7.9202,6.0347,0.35,-1.4,0.84,0.871,-9.6814,-1.5123,7.28,-1.05,-0.84,-0.0072,-0.1293,8.5066,-1.4809,-0.8168,-0.5496,-0.34,-7.2903,-6.6343,-3.1145,1.1527,0.458
16890.735,0.469,7.9298,5.9868,1.05,-1.4,0.84,0.871,-9.7196,-1.4166,4.34,-1.26,-0.98,0.0359,-0.0838,8.4396,-1.3664,-0.6947,-0.6565,-0.3735,-7.276,-6.6535,-3.313,1.2443,0.2824
16982.195,0.4977,7.9298,6.0251,0.91,-1.4,0.98,0.8327,-9.6909,-0.9236,-3.43,-2.17,-1.33,0.0096,-0.1221,8.5042,-1.229,-0.4504,-0.5573,-0.3112,-7.2832,-6.675,-3.4809,1.1221,0.3053
17102.018,0.4642,7.8341,5.9581,0.0,-0.77,1.05,0.8758,-9.7914,-0.9284,4.55,-1.68,-0.91,-0.0335,-0.1006,8.4898,-1.4504,-0.6641,-0.4733,-0.3256,-7.2832,-6.7086,-3.4122,1.1756,0.4046
17189.91,0.5025,7.9872,6.0251,1.54,-1.33,0.98,0.8614,-9.7244,-1.3687,-3.15,-1.68,-1.12,0.0527,-0.1508,8.5042,-1.4504,-0.2748,-0.3969,-0.3663,-7.252,-6.7445,-3.1298,1.1985,0.3588
17281.627,0.4834,7.925,6.0299,0.07,-1.19,1.19,0.8471,-9.6814,-0.8423,4.34,-1.4,-0.98,0.0838,-0.1317,8.509,-1.4046,-0.3435,-0.5267,-0.3496,-7.2999,-6.7421,-3.3435,1.1069,0.3511
17371.775,0.4738,7.9585,6.0347,0.77,-1.33,0.98,0.8566,-9.7484,-1.4883,-2.38,-2.03,-1.05,0.0814,-0.146,8.4635,-1.2901,-0.5802,-0.5344,-0.328,-7.2832,-6.6415,-3.4427,1.084,0.5038
17460.424,0.5073,7.9059,6.0203,0.07,-1.12,1.12,0.8088,-9.6574,-0.6461,-0.56,-1.82,-1.12,0.0599,-0.1844,8.4683,-1.2443,-0.5115,-0.5496,-0.3567,-7.2927,-6.6966,-3.2137,0.9924,0.3893
17551.372,0.4786,7.9442,6.0203,0.77,-1.26,0.98,0.8949,-9.7196,-1.7276,6.79,-1.05,-0.98,0.0383,-0.1293,8.6335,-1.3893,-0.6336,-0.5496,-0.3448,-7.2616,-6.7038,-3.3359,1.0534,0.4046
17673.661,0.5025,7.9681,6.0443,0.28,-1.05,1.19,0.7896,-9.7005,-0.5934,-2.38,-2.31,-1.26,0.0263,-0.1101,8.5617,-1.4275,-0.458,-0.3359,-0.328,-7.343,-6.7612,-3.2824,1.1527,0.4046
17759.734,0.4834,7.9825,6.0491,0.56,-1.47,0.77,0.8279,-9.6861,-1.4405,7.14,-1.12,-0.63,-0.1389,-0.1389,8.6287,-1.4427,-0.7405,-0.5954,-0.3376,-7.2903,-6.7876,-3.2824,1.2214,0.3588
17849.772,0.5073,7.925,6.0251,-0.28,-1.05,1.05,0.8088,-9.7627,-0.6987,-2.87,-2.1,-1.19,0.0287,-0.17,8.4851,-1.2595,-0.4275,-0.687,-0.395,-7.3119,-6.7516,-3.4504,1.2061,0.3511
17940.244,0.4786,7.9059,6.006,0.49,-1.26,0.98,0.8423,-9.6909,-1.3304,5.46,-1.19,-0.98,-0.0144,-0.1101,8.4922,-1.3817,-0.6336,-0.4427,-0.3256,-7.3263,-6.8115,-3.0916,1.0687,0.3664
18031.176,0.4929,7.9346,5.9868,0.7,-1.47,0.98,0.8327,-9.7149,-0.9236,-3.64,-2.17,-1.19,0.012,-0.17,8.5617,-1.3893,-0.3588,-0.4275,-0.3304,-7.3071,-6.6607,-3.1756,1.0611,0.4351
18122.862,0.4786,7.9155,5.939,0.07,-1.05,1.4,0.8997,-9.6718,-1.2586,2.52,-1.33,-1.12,-0.0431,-0.0934,8.6598,-1.4656,-0.5954,-0.4504,-0.3065,-7.3047,-6.6726,-3.3206,1.1374,0.4351
18208.669,0.4881,7.9442,6.0538,0.98,-1.33,0.84,0.8375,-9.6957,-1.2443,-5.18,-1.96,-1.19,0.0287,-0.1796,8.5904,-1.3893,-0.4198,-0.6565,-0.2897,-7.3047,-6.6224,-3.3588,1.1679,0.458
18299.118,0.4881,7.9202,5.9916,0.21,-1.33,1.26,0.8518,-9.6335,-0.9332,3.43,-1.61,-1.12,0.0239,-0.1317,8.5736,-1.5649,-0.4046,-0.6107,-0.3376,-7.3239,-6.6774,-3.2443,1.0305,0.3053
18388.59,0.4929,7.9585,6.0108,1.05,-1.47,1.05,0.8518,-9.6957,-1.5266,-0.42,-1.82,-1.05,0.0335,-0.1508,8.4994,-1.3282,-0.4275,-0.5802,-0.3112,-7.276,-6.6439,-3.4733,1.1527,0.5878
18509.399,0.4929,7.9346,5.9964,0.14,-1.19,1.12,0.8566,-9.7196,-1.4453,1.4,-1.68,-1.12,0.0431,-0.1652,8.5234,-1.313,-0.6183,-0.5267,-0.3496,-7.2999,-6.6894,-3.3511,1.0763,0.4198
18598.964,0.4881,7.9729,6.0395,1.05,-1.47,0.84,0.8183,-9.6957,-0.6891,-3.08,-2.17,-1.19,0.0048,-0.1437,8.5688,-1.3817,-0.542,-0.5115,-0.4142,-7.2784,-6.62,-3.1069,1.1374,0.313
18688.342,0.4977,7.949,6.0299,0.07,-1.19,1.19,0.8518,-9.7005,-1.4022,3.08,-1.12,-0.98,-0.0335,-0.1149,8.5617,-1.4885,-0.7863,-0.4962,-0.3376,-7.2808,-6.7684,-3.3053,1.1298,0.4351
18810.863,0.469,7.949,6.0299,1.05,-1.33,0.91,0.7848,-9.6957,-0.9093,-3.36,-2.17,-1.26,0.0479,-0.1844,8.5808,-1.2748,-0.4656,-0.5954,-0.3256,-7.2999,-6.6607,-3.1985,0.9542,0.3969
18868.678,0.5121,7.9681,6.0299,0.98,-1.26,1.19,0.8662,-9.7005,-1.34,5.6,-1.19,-0.91,-0.0311,-0.0814,8.5066,-1.3817,-0.5802,-0.626,-0.3208,-7.3071,-6.6846,-3.3664,1.2061,0.313
19049.921,0.5121,7.9825,6.0299,0.84,-1.33,1.05,0.8136,-9.7005,-1.0481,-6.02,-2.45,-1.19,0.0742,-0.146,8.4683,-1.5191,-0.4733,-0.6412,-0.3903,-7.2496,-6.7325,-3.1603,1.229,0.3511
19140.188,0.4594,7.925,5.9916,0.42,-1.33,0.98,0.8614,-9.6574,-1.2299,5.25,-1.26,-0.98,0.0072,-0.1532,8.418,-1.2977,-0.7252,-0.4809,-0.2921,-7.2856,-6.6702,-3.2748,1.2519,0.5267
19260.127,0.4881,7.9825,6.0491,0.7,-1.26,1.05,0.871,-9.7627,-1.2347,-2.87,-2.17,-1.19,0.0383,-0.1341,8.5928,-1.1985,-0.6794,-0.8092,-0.3759,-7.2808,-6.7301,-3.0916,0.9771,0.2519
19349.926,0.4786,7.9442,5.9821,-17.71,-1.26,1.05,0.8279,-9.7005,-0.8136,5.67,-1.61,-1.05,-0.067,-0.1508,8.5234,-1.1985,-0.5954,-0.6641,-0.3328,-7.3526,-6.7133,-3.3359,1.3359,0.4122
19440.902,0.4881,7.9585,6.0347,1.33,-1.47,0.91,0.8471,-9.7196,-1.541,-1.26,-1.96,-0.98,0.0407,-0.1963,8.5712,-1.5267,-0.5267,-0.4809,-0.3041,-7.3239,-6.7349,-3.1756,1.1069,0.3817
19530.254,0.4786,7.9107,6.0108,-0.14,-1.12,0.98,0.8088,-9.6766,-0.6556,0.28,-1.82,-1.33,0.0431,-0.1963,8.6119,-1.3588,-0.6107,-0.687,-0.3591,-7.288,-6.7109,-3.2824,1.0687,0.3588
19622.462,0.4834,7.9825,6.0156,1.26,-1.4,0.84,0.8566,-9.7196,-1.5697,2.73,-1.54,-1.12,0.0144,-0.1125,8.5497,-1.313,-0.4351,-0.3664,-0.3017,-7.276,-6.7181,-3.1908,1.2061,0.374
19799.629,0.4786,7.9729,5.9964,0.49,-1.19,0.98,0.871,-9.7101,-1.6415,6.72,-0.98,-0.98,0.0982,-0.1556,8.5784,-1.4885,-0.6412,-0.542,-0.3567,-7.3598,-6.7924,-3.1145,1.1298,0.3664
20010.461,0.4881,7.949,6.0012,0.77,-1.47,1.05,0.8758,-9.6479,-1.3065,6.37,-1.05,-0.98,0.0,-0.1101,8.4467,-1.3664,-0.4733,-0.5115,-0.3519,-7.3287,-6.6655,-3.4809,1.0229,0.3359
20098.275,0.4977,7.9585,6.0108,0.56,-1.26,1.19,0.8231,-9.6957,-1.0385,-3.43,-2.17,-1.26,0.0503,-0.1532,8.5665,-1.3664,-0.4733,-0.7557,-0.3208,-7.3239,-6.6655,-3.2061,1.0687,0.2519
20189.801,0.4738,7.925,5.9916,0.28,-1.26,0.91,0.8662,-9.7101,-1.2203,6.16,-1.12,-0.98,0.0096,-0.1676,8.521,-1.3893,-0.5115,-0.3282,-0.3424,-7.2664,-6.6702,-3.3893,1.0611,0.3969
20277.987,0.4929,7.9681,6.0251,0.84,-1.4,1.12,0.8279,-9.7005,-1.0337,-2.66,-2.03,-1.26,0.0072,-0.1293,8.5353,-1.1756,-0.4122,-0.5878,-0.328,-7.3287,-6.6822,-3.2214,1.084,0.4275
20369.013,0.4881,7.925,5.9773,-0.21,-0.98,1.26,0.8327,-9.6479,-1.1007,5.6,-1.26,-0.98,0.0622,-0.1772,8.509,-1.5038,-0.4351,-0.4962,-0.3424,-7.367,-6.6655,-3.2977,1.084,0.2901
20458.078,0.4738,7.9777,6.0299,0.7,-1.33,0.84,0.8662,-9.7292,-1.4548,-3.22,-1.54,-1.12,-0.0096,-0.2035,8.5521,-1.3893,-0.3969,-0.5878,-0.3376,-7.3023,-6.7373,-3.2443,1.0382,0.4275
20549.636,0.4977,7.949,6.0108,0.42,-1.33,1.12,0.7992,-9.6622,-0.6221,0.84,-1.61,-1.26,0.0551,-0.0622,8.5186,-1.313,-0.6718,-0.3359,-0.419,-7.3502,-6.7564,-3.2977,1.084,0.374
20671.578,0.5073,7.9633,6.0203,0.98,-1.33,1.19,0.8471,-9.7053,-1.5027,4.69,-1.19,-0.91,0.0215,-0.1796,8.5114,-1.4351,-0.6107,-0.5573,-0.3663,-7.2903,-6.6559,-3.1145,0.9847,0.4198
20760.542,0.4929,7.9394,6.0156,-0.07,-1.05,1.26,0.8183,-9.6957,-0.9332,-1.89,-2.03,-1.19,-0.0072,-0.1317,8.5641,-1.458,-0.7099,-0.5725,-0.3184,-7.3191,-6.62,-3.0763,1.0458,0.4046
20852.756,0.4786,7.9394,6.0395,1.12,-1.26,0.98,0.8614,-9.7053,-1.4644,5.67,-1.12,-0.98,0.0335,-0.1939,8.5569,-1.4198,-0.6489,-0.4733,-0.2993,-7.3023,-6.7588,-3.145,1.0458,0.2977
20939.624,0.5121,7.9442,6.0156,0.77,-1.33,1.12,0.7992,-9.6479,-0.7609,-2.59,-2.38,-1.26,0.0287,-0.1628,8.5449,-1.3588,-0.6183,-0.374,-0.3424,-7.3071,-6.7205,-3.2443,1.0611,0.3511
21029.395,0.4786,7.925,6.0203,0.0,-1.26,0.98,0.8758,-9.6861,-1.3974,6.44,-0.98,-0.98,0.0646,-0.1221,8.4467,-1.374,-0.229,-0.5954,-0.3591,-7.2927,-6.6607,-3.1679,1.1603,0.4427
21118.386,0.5073,7.9537,6.0251,0.7,-1.33,0.98,0.8183,-9.7244,-1.0433,-6.09,-2.59,-1.26,0.0168,-0.0862,8.4396,-1.4046,-0.8015,-0.4656,-0.3735,-7.264,-6.7684,-3.2748,0.9847,0.3588
21209.544,0.4738,7.9202,5.9964,0.49,-1.26,0.98,0.8758,-9.6957,-1.139,7.14,-1.05,-0.91,0.0838,-0.1532,8.5808,-1.2443,-0.4809,-0.4656,-0.3328,-7.2951,-6.7133,-3.2214,0.9237,0.4198
21328.599,0.5025,7.9585,6.0347,0.56,-1.26,1.12,0.8375,-9.7101,-1.3161,-5.04,-2.45,-1.19,0.0287,-0.0958,8.5258,-1.2519,-0.5802,-0.5878,-0.3065,-7.2568,-6.8139,-3.3053,1.0305,0.4275
21421.196,0.4929,7.9155,6.0299,0.42,-1.19,1.05,0.8423,-9.6622,-1.1342,3.36,-1.54,-1.12,0.0239,-0.1772,8.4922,-1.1908,-0.5802,-0.5115,-0.2921,-7.2832,-6.6583,-3.1756,1.1145,0.2824
21540.093,0.469,7.9777,6.0395,1.26,-1.47,1.12,0.8375,-9.7196,-1.0337,-0.84,-1.89,-1.12,0.0287,-0.1077,8.5329,-1.3817,-0.3588,-0.3053,-0.34,-7.3167,-6.7014,-3.1298,0.9695,0.3053
21598.481,0.4929,7.9202,5.9773,0.0,-1.12,1.12,0.8518,-9.6479,-1.0768,4.62,-1.54,-1.12,0.0575,-0.1748,8.4827,-1.3359,-0.5573,-0.4351,-0.3543,-7.3119,-6.7876,-3.2748,0.9542,0.4046
21689.964,0.469,7.9681,6.0347,0.84,-1.33,1.05,0.8566,-9.7388,-1.5458,-2.1,-2.17,-1.05,0.0048,-0.1269,8.4467,-1.1756,-0.3664,-0.4351,-0.3496,-7.3119,-6.699,-3.0534,1.1374,0.458
21781.352,0.5025,7.9442,6.006,0.28,-1.33,1.12,0.8088,-9.6239,-0.6413,0.0,-1.82,-1.19,-0.0024,-0.1389,8.5569,-1.4122,-0.6794,-0.7176,-0.3663,-7.2616,-6.79,-3.3282,1.0534,0.4198
21872.327,0.4738,7.9585,6.0012,0.77,-1.19,1.12,0.8614,-9.7101,-1.5075,4.34,-1.33,-0.98,0.0335,-0.1867,8.5305,-1.2977,-0.6565,-0.4962,-0.3998,-7.2999,-6.6798,-3.1221,1.0611,0.4122
21960.202,0.5025,7.9394,6.0347,0.35,-1.12,1.05,0.8375,-9.7196,-0.9523,-1.82,-1.89,-1.12,0.0,-0.1197,8.5569,-1.4656,-0.687,-0.5496,-0.3256,-7.3191,-6.7971,-3.2595,1.1679,0.3817
22081.917,0.4786,7.9537,6.0251,0.63,-1.33,0.98,0.8566,-9.7292,-1.4596,3.92,-1.05,-0.91,-0.0024,-0.1317,8.5401,-1.374,-0.5573,-0.6489,-0.3208,-7.3263,-6.7325,-3.2901,1.0382,0.4656
22172.771,0.4881,7.949,6.0156,0.84,-1.26,1.19,0.7992,-9.6957,-0.9093,-2.59,-2.1,-1.26,-0.0215,-0.1221,8.5736,-1.3435,-0.6947,-0.4809,-0.2969,-7.288,-6.6511,-3.2519,1.1908,0.3893
22258.047,0.4786,7.9202,5.9821,-0.28,-1.12,1.05,0.8662,-9.6766,-1.2586,5.18,-1.19,-1.05,0.0263,-0.1317,8.3749,-1.2901,-0.5496,-0.626,-0.3232,-7.2808,-6.699,-3.3893,1.229,0.2748
22348.387,0.5121,7.9633,6.0491,0.84,-1.19,0.98,0.8231,-9.7244,-1.3113,-3.99,-2.31,-1.26,-0.0263,-0.1604,8.5018,-1.5038,-0.6336,-0.626,-0.3496,-7.3334,-6.6128,-3.3817,1.1145,0.4198
22439.11,0.4738,7.9537,5.9916,0.42,-1.19,1.12,0.8327,-9.6335,-1.0816,4.41,-1.33,-1.05,0.0,-0.1532,8.521,-1.4427,-0.6336,-0.542,-0.2849,-7.3191,-6.6463,-3.2443,1.1908,0.4733
22530.254,0.4929,7.9968,6.0108,1.33,-1.33,1.05,0.871,-9.7292,-1.3639,0.91,-1.61,-1.05,-0.0479,-0.1532,8.5641,-1.3511,-0.6031,-0.4198,-0.3376,-7.343,-6.7397,-3.1832,1.0687,0.4962
22621.403,0.4786,7.9107,6.0108,-0.42,-1.05,1.05,0.8279,-9.6622,-0.8088,2.87,-1.82,-1.12,-0.0239,-0.1556,8.4922,-1.2519,-0.4809,-0.6183,-0.3519,-7.2784,-6.7038,-3.1527,1.2748,0.4275
22740.127,0.5025,7.9825,6.0203,1.33,-1.47,0.91,0.8662,-9.7196,-1.5123,-1.4,-1.89,-1.05,0.0407,-0.1604,8.5641,-1.2595,-0.3969,-0.4427,-0.3328,-7.3502,-6.7469,-3.2595,1.374,0.4351
22830.656,0.4786,7.9394,5.9868,0.56,-1.26,1.12,0.804,-9.6526,-0.6987,1.61,-1.68,-1.19,0.0335,-0.1508,8.5545,-1.2519,-0.626,-0.687,-0.3615,-7.3717,-6.6942,-3.0611,0.9695,0.3817
22920.72,0.4738,7.9777,6.0156,0.56,-1.19,0.91,0.8423,-9.7292,-1.4644,3.5,-1.4,-0.98,0.0766,-0.2274,8.4707,-1.229,-0.542,-0.7176,-0.3472,-7.2927,-6.7086,-3.2748,1.2214,0.4275
23009.918,0.5121,7.9346,6.006,0.7,-1.26,1.05,0.804,-9.6766,-0.7609,-4.2,-2.24,-1.26,0.0599,-0.1197,8.4874,-1.2519,-0.6412,-0.3359,-0.3065,-7.3047,-6.596,-3.3435,1.0534,0.3053
23099.908,0.4977,7.9777,6.0156,0.91,-1.4,1.05,0.8853,-9.7005,-1.5553,4.34,-0.91,-0.98,0.0575,-0.2059,8.4036,-1.1908,-0.6718,-0.3969,-0.3591,-7.3047,-6.7756,-3.3511,1.0687,0.4809
23190.599,0.4929,7.925,6.0108,0.21,-1.12,1.12,0.7896,-9.7005,-0.8614,-2.73,-2.24,-1.19,0.0024,-0.1748,8.5497,-1.3359,-0.6107,-0.5725,-0.3352,-7.2784,-6.7181,-3.0687,1.0992,0.3359
23278.053,0.4546,7.925,6.0012,0.56,-1.26,1.12,0.8471,-9.6957,-1.2538,5.11,-1.19,-1.05,0.0838,-0.1053,8.4683,-1.2061,-0.4275,-0.5038,-0.3567,-7.276,-6.8115,-3.3359,1.2366,0.4885
23368.869,0.4977,8.0064,6.0299,1.12,-1.47,1.12,0.804,-9.6957,-1.1246,-3.85,-2.24,-1.26,-0.0599,-0.1317,8.5186,-1.4962,-0.6565,-0.6336,-0.3424,-7.331,-6.6487,-3.2061,1.145,0.2748
23489.221,0.4881,7.9107,5.9821,-0.28,-0.98,1.12,0.8423,-9.6766,-0.8231,6.09,-1.05,-0.91,0.0718,-0.1437,8.4659,-1.4885,-0.6718,-0.4198,-0.4166,-7.3095,-6.6535,-3.1603,0.9771,0.3664
23581.465,0.5168,7.9681,6.0443,0.7,-1.26,0.98,0.8518,-9.7484,-1.2538,-2.45,-1.96,-1.26,0.0048,-0.1628,8.5569,-1.4962,-0.5038,-0.5115,-0.3136,-7.3598,-6.7469,-3.0534,1.0611,0.2977
23669.828,0.4786,7.9585,5.9964,0.28,-1.26,1.12,0.8375,-9.6814,-0.8566,4.97,-1.68,-1.12,0.0575,-0.1532,8.4731,-1.3206,-0.3969,-0.6641,-0.3567,-7.3287,-6.7995,-3.1527,1.1374,0.374
23758.646,0.4834,7.9729,5.9868,0.77,-1.26,1.12,0.8662,-9.7101,-1.4118,0.42,-1.4,-0.98,-0.0168,-0.1724,8.5066,-1.3206,-0.5649,-0.6794,-0.3376,-7.3167,-6.6966,-3.1756,1.0611,0.2519
23849.821,0.4929,7.9298,6.0156,0.21,-1.26,1.12,0.8327,-9.6909,-0.8662,0.7,-1.75,-1.12,0.0431,-0.1149,8.497,-1.3664,-0.4427,-0.374,-0.2945,-7.3143,-6.7684,-3.1527,1.0916,0.6031
23939.985,0.469,7.9729,6.0347,1.19,-1.68,0.91,0.8327,-9.7196,-1.5458,2.38,-1.54,-1.12,0.091,-0.1389,8.5353,-1.626,-0.6183,-0.5115,-0.3424,-7.3478,-6.7373,-3.1908,1.0229,0.4504
24032.012,0.4977,7.9202,5.9533,0.21,-1.05,1.26,0.7896,-9.667,-0.737,-1.12,-2.03,-1.05,-0.012,-0.0551,8.5784,-1.458,-0.5496,-0.374,-0.3376,-7.2568,-6.7421,-3.3282,1.0534,0.4809
24150.338,0.469,7.9681,6.0203,0.35,-1.26,0.98,0.871,-9.734,-1.4548,4.62,-1.26,-1.05,-0.0024,-0.158,8.5593,-1.2214,-0.5802,-0.8397,-0.4501,-7.3047,-6.6511,-2.9924,1.1221,0.3664
24240.448,0.5025,7.949,6.0395,0.98,-1.33,1.26,0.8183,-9.6766,-0.8088,-1.4,-2.24,-1.19,0.0311,-0.0527,8.5856,-1.4656,-0.5115,-0.5344,-0.3352,-7.3765,-6.6583,-3.4275,1.0763,0.2366
24331.215,0.4786,7.9394,5.9868,0.14,-1.19,1.12,0.8614,-9.667,-1.4213,7.98,-0.63,-0.91,0.0982,-0.1221,8.4755,-1.4427,-0.4733,-0.7099,-0.3424,-7.2832,-6.7612,-3.2977,1.1756,0.3282
24421.489,0.5121,7.9681,6.0203,0.84,-1.19,0.98,0.8183,-9.7292,-1.0863,-6.09,-2.52,-1.26,0.0455,-0.1796,8.5688,-1.4046,-0.6565,-0.8015,-0.3591,-7.3191,-6.6966,-3.1145,1.084,0.313
24510.637,0.4929,7.9059,5.9916,0.49,-1.12,1.05,0.8566,-9.6574,-0.9523,5.88,-1.19,-0.91,0.0,-0.1149,8.5377,-1.3359,-0.4046,-0.6183,-0.3256,-7.3382,-6.7493,-3.0,1.1374,0.4198
24599.685,0.4929,7.992,6.0156,0.91,-1.4,0.98,0.8327,-9.7388,-1.3878,-3.15,-2.1,-1.19,-0.0096,-0.1197,8.5066,-1.1679,-0.3511,-0.4122,-0.3711,-7.2975,-6.7421,-3.3206,1.1603,0.4504
24690.468,0.4834,7.9442,6.006,0.0,-1.33,1.05,0.8327,-9.667,-1.1007,4.9,-1.26,-1.05,0.0192,-0.0886,8.5066,-1.3282,-0.6412,-0.5191,-0.3352,-7.3215,-6.8115,-3.2824,1.0229,0.3969
24778.246,0.469,7.9825,6.0251,1.12,-1.4,0.98,0.8566,-9.7101,-1.3448,-3.92,-1.82,-1.05,0.103,-0.1676,8.4803,-1.1985,-0.2366,-0.771,-0.2993,-7.3239,-6.6918,-3.374,1.084,0.4198
24898.523,0.4929,7.9107,5.9773,0.0,-1.12,1.33,0.8231,-9.6526,-0.7705,3.29,-1.89,-1.12,0.0527,-0.1269,8.5736,-1.313,-0.4656,-0.4885,-0.3376,-7.2712,-6.6272,-3.1221,1.0229,0.3893
24990.21,0.4929,7.9681,6.0203,1.33,-1.26,1.05,0.8375,-9.7053,-1.4836,2.24,-1.47,-0.98,0.0718,-0.1508,8.5808,-1.3817,-0.687,-0.4504,-0.3831,-7.288,-6.6463,-3.2137,1.1756,0.3893
25080.708,0.5121,7.9442,6.006,0.28,-1.26,1.19,0.8088,-9.6766,-0.7609,-2.38,-2.1,-1.26,-0.0503,-0.1173,8.5808,-1.3359,-0.6412,-0.6489,-0.3567,-7.3215,-6.7804,-3.4427,1.1527,0.3511
25168.939,0.4881,7.9346,6.0203,0.35,-1.26,0.84,0.8758,-9.7244,-1.3543,7.14,-1.05,-0.91,0.103,-0.1628,8.4994,-1.3817,-0.5573,-0.6336,-0.3352,-7.264,-6.7588,-3.1756,1.1603,0.458
25258.393,0.4929,7.9298,6.0347,0.42,-1.26,1.05,0.8423,-9.6861,-0.7561,-5.32,-2.38,-1.26,-0.0886,-0.146,8.5425,-1.3817,-0.6641,-0.4733,-0.3136,-7.3502,-6.7277,-3.2672,1.2672,0.313
25348.466,0.4738,7.925,5.9868,0.84,-1.33,1.12,0.8614,-9.6718,-1.4405,6.23,-0.98,-0.91,0.0048,-0.1915,8.5688,-1.3282,-0.8092,-0.3969,-0.3041,-7.3095,-6.6798,-3.145,0.916,0.4275
25439.699,0.5073,7.9681,6.0012,0.56,-1.26,1.05,0.8231,-9.734,-0.9619,-5.18,-2.38,-1.26,-0.067,-0.1077,8.5712,-1.4427,-0.6183,-0.6489,-0.2873,-7.3119,-6.6583,-3.1603,1.2137,0.5496
25560.323,0.4786,7.9202,5.9964,0.56,-1.26,0.98,0.8518,-9.6718,-1.139,7.42,-0.98,-0.91,-0.012,-0.182,8.4611,-1.2137,-0.4656,-0.3206,-0.3352,-7.2832,-6.7828,-3.3282,1.1069,0.5191
25650.697,0.4834,7.9872,6.0156,1.33,-1.33,1.12,0.8375,-9.7196,-1.3352,-5.04,-2.38,-1.26,0.0551,-0.1197,8.5066,-1.313,-0.3359,-0.7176,-0.4357,-7.2927,-6.6894,-3.1145,1.1756,0.4656
25741.259,0.4594,7.9059,5.9916,-0.21,-1.12,1.05,0.8327,-9.6718,-1.0337,4.83,-1.26,-0.98,0.0551,-0.1676,8.5641,-1.3969,-0.6107,-0.6947,-0.3543,-7.3239,-6.7277,-3.313,1.1298,0.3206
25829.874,0.4786,7.9729,6.0203,1.47,-1.47,0.91,0.8566,-9.7244,-1.3543,0.91,-1.68,-1.19,0.0263,-0.067,8.5473,-1.3511,-0.7176,-0.4351,-0.3256,-7.3215,-6.6798,-3.2901,1.1679,0.458
26009.728,0.4929,7.9585,6.0299,0.77,-1.26,1.05,0.8566,-9.7292,-1.6128,1.82,-1.61,-0.91,0.0215,-0.0742,8.4851,-1.4046,-0.8015,-0.542,-0.395,-7.3574,-6.7277,-3.2519,0.9466,0.2977
26189.847,0.4499,7.9633,6.0156,0.98,-1.33,0.91,0.8806,-9.7196,-1.4022,6.65,-0.98,-0.98,0.0192,-0.1053,8.5425,-1.4733,-0.5878,-0.5267,-0.3711,-7.3071,-6.7205,-3.2595,1.145,0.3588
26309.677,0.4881,7.949,6.006,0.42,-1.19,1.05,0.8566,-9.6814,-1.4501,7.07,-0.98,-0.98,-0.0144,-0.1221,8.5976,-1.5038,-0.6489,-0.5649,-0.3065,-7.276,-6.6631,-3.145,1.1527,0.3664
26400.723,0.4786,7.949,5.9821,0.77,-1.33,1.12,0.8231,-9.7005,-1.0193,-4.62,-2.24,-1.19,0.0551,-0.103,8.4539,-1.5573,-0.3969,-0.542,-0.3472,-7.2999,-6.6798,-3.4427,1.1145,0.3206
26491.964,0.5073,7.9825,6.0012,0.84,-1.33,1.26,0.8662,-9.6622,-1.0241,7.77,-0.91,-0.98,0.0168,-0.0934,8.5329,-1.3053,-0.458,-0.7863,-0.3136,-7.276,-6.8043,-3.2061,0.9924,0.6107
26581.062,0.4834,7.9059,5.9964,0.56,-1.12,0.98,0.8375,-9.7053,-1.2921,-4.97,-2.38,-1.12,0.067,-0.1844,8.4755,-1.3893,-0.5115,-0.3435,-0.3567,-7.2784,-6.7325,-3.3969,1.0763,0.458
26672.818,0.5121,7.9968,6.0203,1.54,-1.4,1.12,0.8566,-9.6766,-0.7178,5.6,-1.19,-0.91,0.0287,-0.182,8.4587,-1.3588,-0.6412,-0.6489,-0.3639,-7.3167,-6.6894,-3.313,1.0,0.2901
26851.316,0.4929,7.9825,6.0012,0.77,-1.26,0.91,0.8471,-9.7484,-1.3831,-0.7,-1.82,-1.12,-0.0455,-0.0886,8.5329,-1.5649,-0.8244,-0.3969,-0.34,-7.3143,-6.8307,-3.0229,1.2061,0.3664
26972.419,0.4929,7.9202,5.9916,0.49,-1.26,0.98,0.7944,-9.6526,-0.6891,-13.37,-1.89,-1.19,0.0431,-0.1006,8.5329,-1.2901,-0.5038,-0.7481,-0.3711,-7.2592,-6.7301,-3.2595,1.1908,0.4046
27058.603,0.4786,7.9729,6.006,0.91,-1.26,1.12,0.871,-9.7244,-1.4836,0.21,-1.33,-1.05,0.0072,-0.1484,8.5856,-1.4351,-0.6489,-0.3664,-0.3089,-7.2808,-6.6798,-3.1679,1.1603,0.4809
27150.686,0.5025,7.9202,6.006,0.42,-1.33,0.98,0.8231,-9.7053,-0.8806,-0.49,-1.96,-1.19,0.1053,-0.1652,8.4587,-1.313,-0.3435,-0.6794,-0.316,-7.2496,-6.7014,-3.2137,1.1145,0.2977
27239.587,0.4881,7.9825,6.0395,1.05,-1.4,0.98,0.8566,-9.734,-1.3783,4.55,-1.33,-1.05,0.0599,-0.0622,8.6119,-1.4046,-0.4962,-0.5115,-0.316,-7.3191,-6.7564,-3.542,1.0153,0.3969
27330.971,0.5025,7.949,5.9964,0.56,-1.33,1.19,0.8327,-9.6861,-0.9045,-2.8,-2.17,-1.26,-0.0024,-0.1341,8.5736,-1.4198,-0.6794,-0.4046,-0.3208,-7.3095,-6.6583,-3.313,1.0305,0.6107
27419.287,0.5025,7.9346,5.9964,0.35,-1.26,0.91,0.8662,-9.6814,-1.3256,5.39,-1.19,-0.98,0.0072,-0.1365,8.5162,-1.3435,-0.5496,-0.5038,-0.3448,-7.3598,-6.7852,-3.2595,1.1145,0.4733
27508.329,0.5073,7.9825,6.0251,1.33,-1.4,1.12,0.8471,-9.7149,-0.9571,-4.69,-2.31,-1.19,0.1245,-0.1293,8.497,-1.145,-0.4046,-0.5344,-0.3926,-7.3454,-6.7852,-3.1908,1.084,0.4198
27599.832,0.5121,7.9585,5.9916,0.35,-1.33,1.05,0.8327,-9.667,-1.1342,7.84,-1.05,-0.91,0.0287,-0.1484,8.4994,-1.3893,-0.771,-0.5573,-0.3591,-7.3047,-6.6679,-3.1603,1.0687,0.4504
27722.194,0.4929,7.9681,6.0299,0.77,-1.26,1.12,0.8088,-9.7484,-1.2203,-5.04,-2.24,-1.19,0.0287,-0.1269,8.5162,-1.4046,-0.4656,-0.374,-0.3328,-7.2688,-6.7205,-3.2595,0.9313,0.4275
27810.248,0.4738,7.9394,5.9916,0.35,-1.33,1.12,0.8183,-9.6431,-0.7944,4.55,-1.33,-0.98,0.079,-0.1341,8.6479,-1.2824,-0.5954,-0.5496,-0.2658,-7.3287,-6.6726,-3.2061,1.0076,0.3664
27900.606,0.4977,7.9825,6.006,1.19,-1.4,0.98,0.8423,-9.7292,-1.4644,0.21,-1.89,-1.05,0.0383,-0.0934,8.5784,-1.2595,-0.5725,-0.5573,-0.419,-7.3119,-6.7708,-3.1603,1.1527,0.2443
27989.865,0.4834,7.9394,6.0108,0.0,-1.12,1.12,0.7944,-9.6718,-0.7561,-0.49,-1.96,-1.12,0.0024,-0.2227,8.5186,-1.1908,-0.7481,-0.5878,-0.3424,-7.3287,-6.7014,-3.2595,1.0916,0.3893
28080.936,0.4929,7.9872,6.0203,1.19,-1.33,1.12,0.8423,-9.7101,-1.4836,0.49,-1.4,-1.05,0.0359,-0.0622,8.5305,-1.3282,-0.458,-0.6718,-0.3496,-7.3454,-6.6942,-3.1603,1.0458,0.1985
28198.923,0.4738,7.9537,5.9821,0.07,-1.26,1.19,0.8136,-9.6622,-0.7513,0.98,-2.1,-1.19,0.1077,-0.1053,8.5449,-1.3893,-0.626,-0.7099,-0.3855,-7.3358,-6.7373,-3.2977,1.313,0.4733
28257.871,0.4786,7.949,6.0203,0.35,-1.26,0.91,0.8806,-9.7053,-1.3974,3.85,-1.33,-0.98,-0.0215,-0.1652,8.521,-1.4046,-0.5954,-0.7405,-0.3615,-7.2688,-6.6295,-3.084,1.0916,0.3893
28377.974,0.4881,7.9585,6.006,0.91,-1.19,1.12,0.7992,-9.667,-0.8518,-4.55,-2.45,-1.26,0.091,-0.1245,8.4013,-1.4275,-0.2901,-0.7405,-0.3352,-7.2712,-6.5817,-3.2214,1.1221,0.3969
28468.961,0.4881,7.9346,6.006,0.35,-1.26,1.05,0.8949,-9.6957,-0.2584,7.56,-0.98,-0.98,0.103,-0.1077,8.5234,-1.5115,-0.2748,-0.5038,-0.3328,-7.2903,-6.699,-3.3664,1.0076,0.4962
28560.376,0.5121,7.9729,6.0156,0.42,-1.26,0.98,0.8518,-9.7244,-1.0193,-3.71,-2.17,-1.19,0.0168,-0.1293,8.5186,-1.2061,-0.6412,-0.626,-0.4118,-7.3478,-6.6702,-3.0382,0.9771,0.374
28650.685,0.4786,7.9298,6.0012,0.49,-1.19,1.19,0.8423,-9.6622,-1.072,6.93,-1.33,-0.98,0.0287,-0.1772,8.5377,-1.229,-0.6565,-0.626,-0.3376,-7.2736,-6.6702,-3.1908,1.3206,0.4733
28740.689,0.4786,7.9777,6.0156,1.19,-1.4,1.12,0.8471,-9.734,-1.2347,-4.83,-1.96,-1.19,0.0718,-0.1748,8.5162,-1.5191,-0.4809,-0.5802,-0.3184,-7.2568,-6.7445,-3.2595,1.1985,0.3435
28829.703,0.4594,7.9202,5.9964,-0.14,-1.12,0.98,0.8375,-9.6622,-0.7992,6.16,-1.19,-1.05,0.0215,-0.1604,8.406,-1.4809,-0.5344,-0.6489,-0.3041,-7.3143,-6.7684,-3.2824,1.1069,0.4122
28922.159,0.4977,7.992,6.0108,1.19,-1.33,1.12,0.8518,-9.7292,-1.4979,-1.12,-1.82,-1.12,-0.0646,-0.0982,8.4348,-1.4809,-0.6183,-0.6107,-0.3448,-7.2736,-6.6511,-3.1069,1.1985,0.3664
29009.591,0.4881,7.9346,6.0108,-0.14,-1.12,1.12,0.8231,-9.6574,-0.8518,0.91,-1.75,-1.12,0.103,-0.1939,8.4922,-1.4656,-0.8702,-0.7176,-0.3232,-7.2975,-6.7349,-3.1221,0.855,0.4427
29160.046,0.4929,7.9585,6.0395,1.33,-1.47,0.84,0.8662,-9.7244,-1.4501,2.52,-1.47,-1.05,0.0359,-0.1293,8.6359,-1.3817,-0.4885,-0.4885,-0.3615,-7.2975,-6.6655,-3.1298,1.0916,0.3511
29221.446,0.4977,7.9537,5.9773,0.35,-1.33,1.19,0.7848,-9.6191,-0.5408,1.61,-2.24,-1.19,0.0048,-0.1245,8.442,-1.4427,-0.7634,-0.4885,-0.3926,-7.2999,-6.7516,-3.1679,1.0153,0.3511
29308.135,0.469,7.949,6.0012,0.84,-1.4,0.98,0.8806,-9.7149,-1.5888,3.08,-1.47,-0.98,-0.0096,-0.1508,8.4755,-1.3282,-0.7099,-0.6489,-0.3543,-7.3215,-6.7062,-3.2519,0.9542,0.3817
29398.672,0.4977,7.925,6.0108,0.07,-1.12,1.12,0.8231,-9.7149,-0.7992,-3.08,-2.17,-1.19,0.0239,-0.17,8.5353,-1.3893,-0.5725,-0.5496,-0.3543,-7.2808,-6.8091,-3.374,1.1374,0.4198
29490.458,0.4881,7.9442,5.9725,0.63,-1.33,1.05,0.8518,-9.667,-1.1533,3.99,-1.4,-1.05,0.0072,-0.1221,8.5401,-1.2443,-0.687,-0.5954,-0.34,-7.3574,-6.7109,-3.2595,1.2137,0.3511
29579.988,0.4977,7.9681,6.0251,0.7,-1.4,1.12,0.8279,-9.7053,-1.0146,-2.8,-2.1,-1.19,0.0,-0.1221,8.5712,-1.5267,-0.4962,-0.6107,-0.3591,-7.2544,-6.7157,-3.229,1.1756,0.5267
29672.222,0.4738,7.9298,6.0012,0.42,-1.19,0.98,0.8566,-9.6814,-1.1533,5.74,-1.19,-0.91,0.0168,-0.1604,8.4946,-1.2672,-0.5725,-0.458,-0.316,-7.3047,-6.6559,-3.4046,1.0611,0.5038
29789.108,0.5073,8.0112,6.0012,1.33,-1.19,1.12,0.8327,-9.7053,-1.1438,-5.18,-2.1,-1.19,0.0383,-0.1796,8.5042,-1.3359,-0.3893,-0.5191,-0.3424,-7.3143,-6.7229,-3.2595,1.2748,0.5191
29880.057,0.4786,7.9107,5.9677,-0.07,-1.26,1.19,0.8614,-9.6431,-0.9045,6.3,-1.12,-1.05,0.0192,-0.1484,8.5665,-1.3664,-0.4427,-0.5725,-0.395,-7.3646,-6.7516,-3.1069,1.2061,0.4427
29968.865,0.4642,7.9777,6.0108,0.84,-1.33,0.98,0.8566,-9.7292,-1.407,-2.38,-2.03,-1.19,0.0048,-0.1628,8.6,-1.4046,-0.7405,-0.5267,-0.3352,-7.3047,-6.6679,-3.145,1.1145,0.3588
30058.186,0.5025,7.9681,5.9964,0.56,-1.33,1.12,0.8136,-9.6574,-0.6987,2.24,-1.47,-1.12,-0.0551,-0.1006,8.5042,-1.4275,-0.7939,-0.4656,-0.2921,-7.3023,-6.6607,-3.2137,1.0076,0.2824
30150.069,0.4738,7.9777,6.006,0.56,-1.33,0.98,0.8566,-9.7196,-1.4309,2.03,-1.61,-0.98,0.0958,-0.1652,8.5353,-1.4122,-0.5267,-0.5344,-0.3496,-7.3119,-6.7397,-3.3893,1.3053,0.4046
30237.958,0.4929,7.9107,6.0012,0.0,-1.05,0.98,0.8375,-9.6718,-0.7753,-2.59,-2.1,-1.19,0.0072,-0.146,8.5018,-1.4962,-0.6336,-0.542,-0.328,-7.2999,-6.6798,-3.3588,1.2824,0.2824
30328.026,0.4786,7.9585,6.0251,0.84,-1.26,1.05,0.871,-9.6861,-1.4022,2.66,-1.26,-0.98,0.079,-0.1101,8.4874,-1.4962,-0.687,-0.4351,-0.3496,-7.3526,-6.8307,-3.313,1.145,0.4046
30418.836,0.5121,7.9537,5.9916,0.42,-1.19,1.19,0.8183,-9.6861,-0.8088,-2.8,-2.1,-1.12,-0.0168,-0.1006,8.4515,-1.374,-0.6336,-0.5878,-0.328,-7.2903,-6.6535,-3.3206,1.145,0.2824
30538.698,0.4929,7.9585,6.0156,0.63,-1.26,0.91,0.8471,-9.734,-1.3161,5.81,-1.12,-0.98,0.0503,-0.17,8.5617,-1.2901,-0.5038,-0.5802,-0.3687,-7.2784,-6.6942,-3.1603,1.084,0.3206
30628.554,0.5025,7.9729,6.0203,0.7,-1.33,1.19,0.804,-9.6861,-1.0433,-7.42,-2.59,-1.33,0.0407,-0.1341,8.5281,-1.4046,-0.3359,-0.4733,-0.3567,-7.3023,-6.7301,-3.1603,1.0992,0.4122
30749.332,0.4642,7.925,5.9868,0.14,-0.91,1.19,0.8566,-9.7053,-1.4261,8.26,-0.77,-0.98,0.0718,-0.1006,8.5736,-1.3435,-0.5573,-0.4962,-0.316,-7.3215,-6.6391,-3.2824,1.0458,0.5115
30808.372,0.469,7.9585,6.0203,0.7,-1.19,0.98,0.8183,-9.7292,-0.9141,-7.28,-2.59,-1.26,-0.0048,-0.1604,8.5114,-1.229,-0.4504,-0.5496,-0.2993,-7.2903,-6.6415,-3.2214,1.1298,0.2748
30898.224,0.4786,7.949,5.9916,0.42,-1.19,1.12,0.8327,-9.6526,-0.9763,6.51,-1.4,-1.05,0.0479,-0.1053,8.5712,-1.0611,-0.687,-0.7557,-0.3496,-7.3191,-6.7732,-3.1985,1.1985,0.3435
30987.939,0.5312,7.9777,6.0203,0.84,-1.26,1.12,0.8327,-9.734,-1.4692,-3.71,-2.17,-1.05,0.0431,-0.1676,8.6335,-1.2824,-0.6031,-0.5038,-0.3184,-7.3382,-6.6008,-3.3282,1.0687,0.313
31078.04,0.4738,7.9298,6.006,0.14,-1.19,1.12,0.8375,-9.6622,-0.8471,2.38,-1.54,-1.12,0.0311,-0.146,8.5449,-1.374,-0.7863,-0.6794,-0.3328,-7.2903,-6.7612,-3.3588,1.0305,0.542
31199.7,0.4738,7.9729,6.0156,1.19,-1.26,1.05,0.8518,-9.7196,-1.4261,1.61,-1.61,-1.05,0.0718,-0.1867,8.5377,-1.313,-0.5725,-0.5954,-0.4046,-7.2951,-6.6655,-3.3435,1.0229,0.3817
31290.45,0.5121,7.9537,5.9821,-0.21,-1.19,1.12,0.804,-9.6718,-0.6796,-3.57,-2.24,-1.19,-0.0024,-0.1197,8.4994,-1.2443,-0.4122,-0.5573,-0.3328,-7.252,-6.6798,-3.3206,1.2519,0.3282
31380.552,0.4834,7.992,6.0203,0.56,-1.26,1.05,0.8566,-9.7244,-1.5553,2.87,-1.19,-0.91,0.0287,-0.1556,8.4491,-1.2061,-0.7328,-0.626,-0.3256,-7.2999,-6.6391,-3.3511,1.145,0.3435
31473.175,0.4929,7.9537,6.006,0.77,-1.33,1.05,0.8088,-9.6861,-0.737,-3.99,-2.45,-1.26,0.0048,-0.1293,8.4994,-1.3435,-0.5954,-0.4885,-0.3232,-7.3095,-6.7086,-3.2137,1.1374,0.3588
31560.568,0.4881,7.9537,5.9821,0.21,-1.12,0.91,0.8901,-9.6861,-1.3352,6.86,-1.12,-0.98,0.0599,-0.1437,8.6335,-1.3969,-0.3817,-0.6031,-0.3855,-7.3071,-6.6535,-3.1298,1.0534,0.3511
31739.274,0.4786,7.949,5.9868,0.42,-1.19,1.33,0.8662,-9.7101,-0.9858,7.63,-0.91,-0.91,-0.0215,-0.1389,8.5018,-1.4122,-0.3969,-0.5496,-0.34,-7.3095,-6.6319,-3.1374,1.1298,0.3817
31949.251,0.4738,7.9394,5.9773,0.0,-1.12,1.19,0.8327,-9.6526,-0.8806,5.25,-1.61,-1.12,0.0335,-0.1317,8.5545,-1.3206,-0.4122,-0.4885,-0.3304,-7.2832,-6.699,-3.2901,1.1679,0.5344
32039.75,0.5121,7.9825,6.0395,1.26,-1.4,0.98,0.8231,-9.7388,-1.3161,-5.25,-2.03,-1.12,0.0982,-0.1532,8.4994,-1.4351,-0.4809,-0.6718,-0.3567,-7.3167,-6.7133,-3.4427,1.0382,0.2672
32131.389,0.4834,7.9394,5.9821,0.07,-1.12,1.12,0.8136,-9.6526,-0.8183,4.27,-1.26,-1.12,0.0551,-0.182,8.5305,-1.4427,-0.5344,-0.5802,-0.3424,-7.276,-6.6774,-2.9847,1.0305,0.2595
32218.547,0.5168,8.016,6.0012,1.4,-1.4,0.98,0.8471,-9.7292,-1.5218,0.07,-1.82,-1.12,0.0742,-0.1077,8.5066,-1.6031,-0.5573,-0.3588,-0.3903,-7.2688,-6.7612,-3.1679,1.1832,0.5496
32310.731,0.5121,7.9202,5.9773,-0.07,-1.05,1.19,0.8231,-9.6526,-0.7178,-0.42,-1.96,-1.12,0.0,-0.1006,8.5281,-1.5115,-0.8855,-0.542,-0.3663,-7.3382,-6.6128,-3.1679,1.2366,0.3511
32400.781,0.4881,7.9442,6.0156,0.42,-1.4,0.91,0.8662,-9.7101,-1.5266,3.78,-1.4,-1.05,0.0575,-0.1197,8.3725,-1.2595,-0.626,-0.5878,-0.3998,-7.3047,-6.7229,-3.1756,0.9771,0.3359
32698.059,0.5025,7.9394,6.0156,0.49,-1.26,1.19,0.7992,-9.7005,-1.0816,-5.46,-2.45,-1.26,-0.0239,-0.1101,8.5234,-1.3969,-0.458,-0.4198,-0.4094,-7.264,-6.7133,-3.0916,1.1603,0.2748
32788.159,0.4546,7.9633,6.0156,0.49,-1.12,1.19,0.8758,-9.6718,-1.2538,5.53,-1.05,-0.98,0.0335,-0.2155,8.6,-1.2901,-0.7023,-0.6718,-0.3759,-7.2664,-6.7133,-3.4427,1.1756,0.313
32968.336,0.4834,7.9346,5.9964,-0.14,-1.19,1.19,0.8423,-9.6431,-1.0193,4.41,-1.26,-0.98,0.0431,-0.1484,8.521,-1.3969,-0.7023,-0.5115,-0.3663,-7.3167,-6.6966,-3.3435,1.0076,0.4198
33058.098,0.5216,7.9825,6.0538,1.19,-1.4,1.12,0.8423,-9.7053,-1.2921,-5.04,-1.89,-1.12,0.0359,-0.1197,8.497,-1.5115,-0.7939,-0.5954,-0.3352,-7.2784,-6.6942,-3.313,0.916,0.3588
33149.699,0.4977,7.9011,5.9916,-0.21,-1.12,1.19,0.8327,-9.6287,-0.8327,5.11,-1.19,-1.12,0.0144,-0.1149,8.5258,-1.3817,-0.5115,-0.7023,-0.3376,-7.2856,-6.7852,-3.2443,0.9542,0.3282
33238.383,0.5025,7.9681,6.0443,0.91,-1.4,0.84,0.8375,-9.7436,-1.5218,-0.77,-1.89,-1.05,0.079,-0.1724,8.5138,-1.3359,-0.3588,-0.7557,-0.3687,-7.2425,-6.7852,-3.3588,0.9618,0.313
33361.338,0.5121,7.9442,6.0156,0.63,-1.26,1.26,0.8231,-9.6431,-0.6317,-0.98,-1.89,-1.12,0.0263,-0.1317,8.5018,-1.4351,-0.6794,-0.4733,-0.3232,-7.3717,-6.7253,-3.1298,1.1221,0.4046
33448.498,0.4642,7.9585,6.0347,0.28,-1.19,0.98,0.8806,-9.7196,-1.5458,6.09,-1.05,-0.98,0.0311,-0.2011,8.4587,-1.2595,-1.0305,-0.5649,-0.3304,-7.264,-6.7493,-3.374,1.145,0.4275
33543.564,0.4834,7.9442,6.006,0.21,-1.12,1.12,0.8183,-9.7101,-0.7561,-4.9,-2.38,-1.26,-0.0239,-0.1053,8.4539,-1.2137,-0.5267,-0.4046,-0.3567,-7.3143,-6.7062,-3.3664,1.0992,0.3282
33630.888,0.4834,7.9537,6.006,0.77,-1.33,0.98,0.871,-9.6766,-1.4405,6.79,-0.91,-0.98,0.0575,-0.1317,8.521,-1.3893,-0.5802,-0.7099,-0.3639,-7.2808,-6.6894,-3.2672,1.1908,0.3511
33718.282,0.4977,7.9729,6.0012,0.49,-1.26,1.05,0.8183,-9.7196,-1.0098,-5.6,-2.38,-1.19,0.0072,-0.1556,8.5305,-1.4733,-0.5267,-0.4962,-0.3879,-7.3023,-6.7038,-3.2214,1.084,0.5267
33808.274,0.4738,7.9346,6.0203,0.56,-1.05,0.98,0.8566,-9.6957,-1.1246,6.02,-1.05,-0.91,0.0455,-0.182,8.5593,-1.4198,-0.5038,-0.6031,-0.3759,-7.2999,-6.7469,-3.0992,1.0229,0.4427
33898.718,0.5121,8.0112,6.0203,1.05,-1.47,1.05,0.8279,-9.7101,-1.2682,-5.6,-2.45,-1.26,0.0622,-0.1389,8.5353,-1.4427,-0.4046,-0.5725,-0.4022,-7.3023,-6.7133,-3.3435,1.0763,0.3664
34020.157,0.4929,7.9346,5.9916,-0.07,-0.98,1.12,0.8327,-9.6814,-1.1821,5.53,-1.26,-0.98,0.0527,-0.1269,8.5234,-1.3893,-0.6107,-0.3893,-0.3256,-7.2808,-6.7708,-3.2748,1.2824,0.3511
34109.719,0.4881,7.9777,6.006,1.05,-1.33,0.91,0.8375,-9.7627,-1.1151,-5.6,-2.17,-1.26,0.0263,-0.1365,8.4994,-1.4656,-0.7557,-0.6183,-0.3232,-7.2951,-6.6583,-3.3588,1.0458,0.4427
34200.346,0.5025,7.9394,5.9916,0.56,-1.26,1.12,0.804,-9.6335,-0.8279,7.14,-1.54,-1.12,0.0886,-0.1389,8.5066,-1.3817,-0.4122,-0.3359,-0.3711,-7.2999,-6.7636,-3.4504,0.9924,0.3969
34319.285,0.4834,7.9777,6.0347,0.77,-1.26,0.98,0.8327,-9.734,-1.5505,-1.82,-2.03,-1.12,-0.0239,-0.1556,8.521,-1.3206,-0.4885,-0.5573,-0.3256,-7.3047,-6.7588,-3.2366,1.0763,0.4351
34378.667,0.5025,7.9155,5.9916,-0.14,-1.19,0.91,0.804,-9.667,-0.6939,-1.4,-1.96,-1.12,0.0431,-0.158,8.5425,-1.4962,-0.7252,-0.7099,-0.3136,-7.3023,-6.7373,-3.2137,1.0382,0.3282
34468.982,0.4738,7.9968,6.0012,1.05,-1.47,0.98,0.8806,-9.7101,-1.4836,3.92,-1.33,-1.05,0.0287,-0.0742,8.5281,-1.4046,-0.6641,-0.7328,-0.3065,-7.2712,-6.7493,-3.2519,1.2672,0.3435
34648.49,0.4834,7.9681,6.0108,0.7,-1.33,0.91,0.8423,-9.7292,-1.4548,3.15,-1.12,-0.98,-0.0814,-0.1197,8.5665,-1.3588,-0.5573,-0.2748,-0.3759,-7.3095,-6.7516,-3.2061,1.1985,0.4427
34768.281,0.5025,7.9825,5.9868,0.63,-1.33,0.98,0.804,-9.667,-0.7944,-3.15,-2.24,-1.19,0.0886,-0.1676,8.5066,-1.1069,-0.4275,-0.5573,-0.3711,-7.3071,-6.6798,-3.0611,1.1298,0.3206
34858.367,0.4786,7.9346,5.9773,0.0,-1.19,0.98,0.8471,-9.6622,-1.3783,7.14,-1.05,-0.91,0.0215,-0.1389,8.497,-1.4046,-0.5573,-0.5038,-0.3519,-7.2688,-6.6439,-3.2519,1.0382,0.4275
34979.218,0.5121,7.9681,6.0203,1.12,-1.4,0.91,0.8231,-9.7053,-1.1677,-6.44,-2.52,-1.19,-0.0048,-0.1053,8.6287,-1.6336,-0.6412,-0.5191,-0.3472,-7.3239,-6.6702,-3.2366,1.1069,0.4733
35038.702,0.469,7.9681,6.0156,0.63,-1.19,1.19,0.8327,-9.6383,-0.7609,6.37,-0.98,-0.91,0.0431,-0.1604,8.5018,-1.2595,-0.5344,-0.4351,-0.3926,-7.2951,-6.6822,-3.3588,1.1298,0.4351
35128.644,0.5073,7.9825,6.0251,0.77,-1.33,1.05,0.8518,-9.7388,-1.2108,-1.82,-2.03,-1.19,0.0742,-0.1101,8.4779,-1.3511,-0.5649,-0.8931,-0.3304,-7.2832,-6.6583,-3.2901,1.0229,0.374
35220.38,0.4642,7.9346,6.0108,-0.28,-1.12,1.05,0.8423,-9.6957,-0.8997,3.78,-1.75,-1.19,-0.0263,-0.1173,8.4874,-1.2901,-0.7557,-0.5878,-0.3376,-7.2808,-6.7277,-3.2061,0.9924,0.4504
35308.836,0.4977,8.0064,6.0251,1.61,-1.4,1.05,0.8375,-9.7436,-1.4596,-2.52,-1.47,-1.12,0.0287,-0.1365,8.5162,-1.4046,-0.4809,-0.6336,-0.3208,-7.3598,-6.6894,-3.1985,1.2519,0.4275
35428.352,0.4786,7.9394,6.0156,0.0,-1.12,1.26,0.8471,-9.6622,-0.6796,4.48,-1.33,-1.12,0.0742,-0.1341,8.5521,-1.4504,-0.6794,-0.5573,-0.3424,-7.288,-6.6415,-3.1985,1.0076,0.3817
35518.474,0.5073,7.9872,6.0491,1.12,-1.4,0.91,0.8423,-9.7101,-1.4836,0.14,-1.75,-1.12,0.012,-0.1748,8.4204,-1.3282,-0.7023,-0.626,-0.3304,-7.2592,-6.7038,-3.4733,1.0458,0.2901
35608.505,0.4977,7.9298,6.006,0.63,-1.26,1.26,0.8136,-9.6479,-0.7753,-1.26,-1.96,-1.12,0.0024,-0.1173,8.6383,-1.2748,-0.4809,-0.6183,-0.3304,-7.2999,-6.6415,-3.1985,1.2595,0.4885
35698.457,0.4929,7.949,6.0347,0.49,-1.26,0.98,0.871,-9.7149,-1.6223,6.23,-1.19,-1.05,0.1173,-0.1604,8.509,-1.4198,-0.458,-0.6947,-0.3184,-7.3239,-6.6918,-3.1985,1.0763,0.3969
35789.821,0.5216,7.949,6.0347,0.63,-1.26,1.12,0.8231,-9.7053,-0.7178,-2.8,-2.38,-1.19,0.0359,-0.1269,8.5042,-1.4198,-0.3893,-0.5802,-0.2993,-7.3334,-6.5481,-3.2595,1.1832,0.313
35878.66,0.4834,7.9681,6.0012,0.98,-1.26,1.05,0.8806,-9.6814,-1.3017,6.3,-1.19,-1.05,0.0527,-0.1676,8.4707,-1.313,-0.4962,-0.5496,-0.3065,-7.3119,-6.7516,-3.2214,1.0458,0.4122
35968.071,0.4977,8.0112,6.0443,0.35,-1.33,1.12,0.8279,-9.734,-1.1916,-4.48,-2.31,-1.19,0.0934,-0.1125,8.5736,-1.4122,-0.5954,-0.4809,-0.3519,-7.3382,-6.699,-3.1679,1.2519,0.2748
36057.853,0.4738,7.9585,6.0156,-0.14,-1.12,1.12,0.8662,-9.6814,-1.0146,6.3,-1.12,-0.98,0.0335,-0.1963,8.5066,-1.4504,-0.5038,-0.6336,-0.3783,-7.3167,-6.7445,-3.3206,1.0305,0.3893
36178.826,0.5073,7.9872,6.0156,1.33,-1.4,1.05,0.8518,-9.7101,-1.0289,-4.13,-2.24,-1.26,0.0168,-0.1365,8.5305,-1.687,-0.5878,-0.6565,-0.3472,-7.2856,-6.7564,-3.2672,1.0076,0.374
36268.584,0.4642,7.925,5.9916,-0.28,-1.19,1.12,0.8375,-9.6718,-0.9811,4.55,-1.26,-0.98,0.0503,-0.1149,8.4874,-1.1374,-0.4656,-0.5115,-0.3711,-7.3191,-6.6774,-3.2824,1.0305,0.4198
36358.887,0.5168,7.9872,6.0299,1.4,-1.4,1.05,0.8423,-9.7627,-1.3926,-5.32,-1.96,-1.05,-0.0239,-0.1221,8.5665,-1.3511,-0.916,-0.4351,-0.3496,-7.3334,-6.8067,-3.3435,1.1298,0.4809
36450.873,0.5025,7.9537,5.9916,0.35,-1.26,1.12,0.8136,-9.6335,-0.6556,4.34,-1.89,-1.12,0.0168,-0.1724,8.4635,-1.2061,-0.7023,-0.5725,-0.34,-7.2544,-6.7157,-3.2519,1.0076,0.3206
36541.312,0.4977,7.992,6.0012,0.7,-1.33,1.05,0.8614,-9.7627,-1.584,0.14,-1.75,-0.91,-0.0096,-0.1221,8.4276,-1.4733,-0.5496,-0.3969,-0.2801,-7.2568,-6.7109,-3.2519,1.0534,0.374
36630.506,0.5073,7.9346,5.9868,0.28,-1.19,1.12,0.8231,-9.6526,-0.737,-0.49,-1.89,-1.05,0.0622,-0.146,8.4707,-1.1985,-0.4504,-0.5038,-0.3328,-7.3191,-6.8067,-3.1985,1.2748,0.374
36718.888,0.4929,7.9968,6.0395,1.26,-1.33,1.19,0.8566,-9.7196,-1.4596,4.55,-1.19,-1.05,0.0072,-0.0982,8.6287,-1.3664,-0.4427,-0.4962,-0.3017,-7.3239,-6.6391,-3.2443,1.0076,0.3282
36838.348,0.4977,7.9394,5.9964,0.21,-1.12,1.05,0.8231,-9.7149,-0.871,-2.1,-2.17,-1.12,-0.0144,-0.1341,8.5545,-1.374,-0.5038,-0.6565,-0.3639,-7.3167,-6.7564,-3.2519,1.1832,0.4809
36928.517,0.4642,7.9202,6.0203,0.49,-1.19,0.84,0.8614,-9.7101,-1.4501,3.85,-0.98,-0.98,0.0718,-0.0718,8.497,-1.3969,-0.4656,-0.6183,-0.2945,-7.2903,-6.6559,-3.2824,1.1145,0.3893
37019.123,0.4929,7.9585,6.0108,0.63,-1.4,0.98,0.8136,-9.6718,-0.8183,-3.78,-2.24,-1.19,-0.0239,-0.0838,8.4611,-1.1832,-0.3664,-0.2901,-0.3567,-7.3287,-6.7014,-3.1527,1.084,0.3053
37108.888,0.4738,7.9442,6.0203,0.0,-1.19,1.05,0.8758,-9.7388,-1.3161,7.0,-0.98,-0.91,0.0215,-0.1413,8.4515,-1.3206,-0.5191,-0.7099,-0.3472,-7.331,-6.79,-3.0611,1.1374,0.4427
37198.252,0.4881,7.9825,6.0299,0.98,-1.33,0.98,0.8327,-9.7388,-1.2826,-4.55,-2.38,-1.19,0.0192,-0.1053,8.5569,-1.4962,-0.4733,-0.5649,-0.3879,-7.3143,-6.7349,-3.2977,1.1221,0.3206
37288.492,0.469,7.9537,5.9868,0.7,-1.4,1.19,0.8471,-9.6526,-1.0959,5.04,-1.19,-0.98,0.1173,-0.1413,8.5449,-1.3969,-0.4122,-0.6107,-0.3615,-7.2927,-6.7014,-3.0992,1.1069,0.2748
37378.54,0.5216,7.9872,6.0108,0.77,-1.4,1.05,0.8518,-9.7244,-1.3639,-0.49,-1.89,-1.05,0.0048,-0.1508,8.4755,-1.5038,-0.687,-0.3893,-0.3543,-7.331,-6.7229,-3.3282,1.2824,0.4733
37468.571,0.4786,7.9059,6.0156,0.14,-1.05,1.05,0.8375,-9.6814,-0.7418,2.66,-1.96,-1.19,0.0527,-0.1221,8.5377,-1.6107,-0.6718,-0.7176,-0.3543,-7.2856,-6.6774,-3.1527,1.0458,0.4046
37589.908,0.4786,7.992,6.0443,1.54,-1.54,1.05,0.8279,-9.734,-1.4261,-0.21,-1.89,-0.98,0.0359,-0.1484,8.4635,-1.4351,-0.9084,-0.3893,-0.3041,-7.3358,-6.8187,-3.2443,1.1145,0.3511
37680.103,0.5168,7.949,5.9821,0.56,-1.26,1.12,0.8375,-9.6766,-0.7896,3.29,-1.47,-1.05,0.0215,-0.1389,8.5353,-1.5038,-0.7328,-0.5038,-0.3711,-7.2592,-6.7157,-3.1756,0.9847,0.3282
37772.43,0.4834,8.0064,6.0251,0.7,-1.19,0.98,0.8279,-9.7484,-1.517,2.1,-1.61,-1.12,-0.0742,-0.1269,8.4994,-1.3359,-0.5573,-0.5267,-0.3065,-7.2951,-6.6774,-3.2824,1.0076,0.4046
37859.422,0.5168,7.9537,6.0251,0.56,-1.33,1.19,0.7992,-9.6335,-0.6843,-3.08,-2.17,-1.26,0.0168,-0.1077,8.5162,-1.3969,-0.626,-0.5802,-0.3232,-7.3741,-6.7253,-3.1069,1.084,0.4198
37949.489,0.4929,7.9537,5.9964,0.84,-1.4,0.91,0.8471,-9.7005,-1.5745,4.13,-1.05,-0.98,0.0814,-0.1484,8.5569,-1.3588,-0.3588,-0.5496,-0.3735,-7.2975,-6.7109,-3.1069,1.1756,0.4656
38039.873,0.4929,7.9298,6.006,0.28,-1.12,1.19,0.8183,-9.6909,-0.8231,-3.43,-2.31,-1.26,0.0359,-0.1317,8.6024,-1.3511,-0.5573,-0.6031,-0.3687,-7.3215,-6.7325,-3.4504,1.0,0.4504
38130.116,0.4786,7.9729,6.0203,0.56,-1.19,1.05,0.871,-9.6861,-1.3687,7.98,-0.91,-0.91,-0.0072,-0.1197,8.521,-1.4504,-0.4733,-0.6641,-0.3711,-7.2185,-6.8019,-3.1908,1.2748,0.313
38250.408,0.4881,7.949,5.9821,0.91,-1.33,1.12,0.8327,-9.6814,-1.1342,-4.76,-2.38,-1.26,0.1006,-0.1532,8.521,-1.4351,-0.5115,-0.4427,-0.3663,-7.3071,-6.7445,-3.2137,1.0458,0.2748
38340.575,0.4738,7.925,5.9725,-0.07,-1.19,1.12,0.871,-9.6861,-0.9954,6.93,-0.98,-0.98,0.012,-0.158,8.4396,-1.2672,-0.4122,-0.4733,-0.3807,-7.3717,-6.7684,-3.2977,1.0458,0.4504
38428.843,0.5025,7.9872,6.0299,1.47,-1.4,0.98,0.8327,-9.7149,-1.0768,-4.27,-2.31,-1.12,0.0048,-0.1484,8.509,-1.4504,-0.6107,-0.4809,-0.3256,-7.2832,-6.7109,-3.1298,1.1985,0.5038
38520.612,0.4977,7.9394,5.9916,0.42,-1.26,1.19,0.8231,-9.6335,-0.8088,6.37,-1.61,-1.12,0.0311,-0.0958,8.5353,-1.2443,-0.5802,-0.5344,-0.3448,-7.3358,-6.7301,-3.2672,1.0382,0.458
38608.177,0.4738,7.9729,6.0156,0.77,-1.47,0.91,0.8566,-9.7531,-1.5601,-1.89,-1.33,-0.98,-0.0455,-0.1221,8.4827,-1.2977,-0.5191,-0.6641,-0.3017,-7.3215,-6.8043,-3.2748,1.1374,0.3817
38699.637,0.469,7.949,5.9964,0.0,-1.12,1.33,0.8183,-9.6861,-0.67,1.61,-1.61,-1.19,-0.0287,-0.079,8.5808,-1.2214,-0.5725,-0.5038,-0.3328,-7.2496,-6.6966,-3.1985,1.084,0.2824
38788.183,0.4977,7.9825,6.0012,1.26,-1.4,1.05,0.8662,-9.7053,-1.4022,0.42,-1.68,-1.12,0.1006,-0.1532,8.5114,-1.3053,-0.5115,-0.8626,-0.2729,-7.3071,-6.7995,-3.3053,1.2977,0.2901
38878.59,0.4977,7.9346,6.0012,0.07,-1.12,1.05,0.8231,-9.6814,-0.7226,-1.26,-1.89,-1.26,-0.0239,-0.1532,8.4898,-1.4046,-0.542,-0.6336,-0.2945,-7.3047,-6.675,-3.2366,1.1221,0.3206
39177.978,0.4834,7.949,5.9964,0.14,-1.26,0.98,0.8662,-9.7005,-1.2778,4.76,-1.26,-1.05,0.0144,-0.1006,8.5066,-1.3969,-0.4809,-0.5725,-0.3663,-7.3023,-6.7157,-3.2595,1.1756,0.3511
39358.17,0.4834,7.9681,5.9725,0.91,-1.33,1.12,0.8423,-9.6383,-1.0911,6.09,-1.12,-0.91,0.0694,-0.1149,8.4659,-1.3435,-0.4809,-0.4962,-0.2873,-7.367,-6.6463,-3.3511,1.1145,0.313
39449.697,0.5025,7.9681,5.9868,0.84,-1.33,1.19,0.8327,-9.7292,-0.9858,-3.29,-2.17,-1.19,0.0359,-0.1389,8.6024,-1.3435,-0.4733,-0.6107,-0.3352,-7.3071,-6.7038,-3.2901,1.0305,0.313
39539.407,0.4929,7.9107,5.9964,0.28,-1.19,0.98,0.8518,-9.6718,-1.1629,3.92,-1.4,-0.91,0.0359,-0.1053,8.5353,-1.5954,-0.626,-0.5191,-0.3591,-7.3215,-6.7708,-3.2137,1.0458,0.542
39658.544,0.4834,7.9968,6.0203,1.61,-1.47,1.05,0.8518,-9.7196,-1.0911,-2.8,-1.96,-1.19,0.0263,-0.1221,8.5114,-1.313,-0.2595,-0.542,-0.316,-7.2951,-6.7325,-3.2214,1.0611,0.4351
39750.304,0.4977,7.925,5.9629,0.14,-0.98,1.26,0.8423,-9.6574,-0.8183,4.55,-1.33,-1.05,0.0024,-0.1269,8.521,-1.5649,-0.6718,-0.6031,-0.3376,-7.3191,-6.5817,-3.1832,1.0687,0.4275
39840.851,0.4929,7.9585,6.0108,1.33,-1.47,1.05,0.8183,-9.7149,-0.9667,1.68,-1.33,-0.98,0.0742,-0.1437,8.4946,-1.2901,-0.5191,-0.626,-0.3041,-7.2736,-6.7756,-3.2519,1.1679,0.3511
39930.922,0.4929,7.9442,5.9916,0.28,-1.26,1.26,0.8183,-9.6335,-0.9715,0.98,-1.75,-1.19,-0.0168,-0.1149,8.5784,-1.5802,-0.6183,-0.7176,-0.3424,-7.2712,-6.6822,-3.1527,1.2824,0.374
40019.115,0.4546,7.949,6.0012,0.91,-1.33,1.12,0.8471,-9.7196,-1.3208,1.82,-1.47,-1.12,0.0239,-0.1891,8.4898,-1.4656,-0.3969,-0.687,-0.3424,-7.3191,-6.7133,-3.2748,1.0687,0.3282
40198.199,0.4786,7.9825,5.9868,1.05,-1.4,0.98,0.8566,-9.667,-1.3113,2.87,-1.4,-0.91,0.0359,-0.1101,8.5425,-1.2824,-0.6565,-0.3969,-0.3304,-7.276,-6.6918,-3.3282,1.1603,0.5573
40287.896,0.4977,7.9442,5.9868,0.63,-1.26,1.19,0.8183,-9.6909,-0.9332,0.28,-1.82,-1.19,0.0215,-0.1269,8.5473,-1.5878,-0.5496,-0.5344,-0.3256,-7.3454,-6.6655,-3.3969,1.1985,0.3817
40407.977,0.4546,7.9442,5.9677,-0.21,-1.12,1.05,0.8471,-9.7244,-1.2634,4.69,-1.4,-1.05,0.0527,-0.1484,8.5832,-1.3969,-0.4809,-0.5191,-0.3472,-7.2592,-6.7493,-3.0458,0.9847,0.4809
40498.6,0.4881,7.949,6.0299,0.91,-1.26,0.98,0.8279,-9.6909,-0.8231,-1.82,-2.38,-1.12,-0.0239,-0.1293,8.4898,-1.2366,-0.4122,-0.5038,-0.316,-7.3717,-6.7373,-3.229,0.9618,0.4427
40588.848,0.4786,7.9202,5.9725,-0.28,-0.98,1.19,0.7992,-9.6622,-0.4355,-6.23,-2.45,-0.98,-0.0024,-0.1317,8.4707,-1.5267,-0.6336,-0.6412,-0.3663,-7.3526,-6.7325,-3.3588,1.0611,0.3969
40678.816,0.5073,7.9633,6.0156,1.26,-1.4,0.91,0.8518,-9.7484,-1.2634,-2.94,-1.89,-0.98,0.1365,-0.1508,8.5305,-1.4733,-0.4046,-0.5344,-0.3615,-7.2856,-6.6272,-2.8626,1.229,0.2824
40769.165,0.4786,7.9442,5.9821,0.49,-1.33,1.26,0.8231,-9.6287,-0.9715,0.28,-2.1,-1.12,0.0263,-0.1484,8.5569,-1.5191,-0.6794,-0.5496,-0.2921,-7.2927,-6.7804,-3.145,1.2366,0.4198
40858.656,0.4786,7.9585,6.0108,0.7,-1.26,1.05,0.8423,-9.7101,-1.3496,-1.89,-2.03,-1.05,0.0215,-0.1796,8.5258,-1.4275,-0.6718,-0.5191,-0.2442,-7.4005,-6.7876,-3.2672,1.2137,0.3511
40949.56,0.4881,7.9442,5.9773,0.14,-1.19,1.26,0.8231,-9.6335,-0.9045,5.39,-1.19,-1.19,0.0622,-0.1652,8.4611,-1.3053,-0.6794,-0.6031,-0.2825,-7.2999,-6.6559,-3.313,1.1832,0.5649
41069.691,0.4834,7.9968,5.9964,1.05,-1.47,0.98,0.8471,-9.6957,-1.4883,-4.34,-2.31,-1.12,0.1149,-0.1389,8.4707,-1.3893,-0.4122,-0.4809,-0.3424,-7.343,-6.7205,-3.4275,1.1603,0.3511
41158.768,0.5073,7.9394,5.9581,-0.14,-1.26,1.12,0.804,-9.7053,-0.9045,-5.95,-2.45,-1.05,0.0383,-0.182,8.5784,-1.5954,-0.4504,-0.6565,-0.3256,-7.343,-6.7373,-3.1603,1.0458,0.4427
41248.086,0.4977,7.9825,6.0012,-17.57,-1.12,0.98,0.8614,-9.7005,-1.5218,2.1,-1.19,-1.05,0.0838,-0.1221,8.4348,-1.3435,-0.5267,-0.6947,-0.3855,-7.3071,-6.7469,-3.145,1.229,0.3511
41338.304,0.5121,7.9633,6.0108,0.77,-1.33,1.33,0.8136,-9.6479,-0.9523,0.0,-2.17,-1.19,0.0383,-0.1532,8.5736,-1.2672,-0.3893,-0.5573,-0.3496,-7.2449,-6.6679,-3.5038,0.9389,0.4198
41428.477,0.4642,7.9394,5.9821,0.07,-1.26,1.05,0.8662,-9.6814,-1.2586,7.91,-1.05,-1.05,-0.0096,-0.1772,8.4803,-1.4046,-0.5496,-0.7405,-0.2849,-7.3191,-6.7995,-3.1603,1.1298,0.3664
41518.795,0.5073,7.949,6.0156,0.77,-1.33,0.98,0.7466,-9.801,-0.6173,2.17,0.63,-1.12,-0.0096,-0.1221,8.4659,-1.1145,-0.6183,-0.5954,-0.3448,-7.3023,-6.7708,-3.1832,0.9847,0.4351
41608.435,0.4786,7.9298,5.9916,0.49,-1.33,0.91,0.8231,-9.6766,-1.1916,-1.19,-1.89,-1.12,0.0958,-0.1245,8.4635,-1.3969,-0.771,-0.5573,-0.3519,-7.3167,-6.6176,-3.2519,1.1221,0.4504
41698.799,0.5121,7.9346,6.0108,0.28,-1.19,1.05,0.8183,-9.7053,-1.4596,-1.12,-1.82,-1.05,0.0479,-0.1772,8.509,-1.3053,-0.313,-0.8244,-0.3112,-7.2903,-6.687,-3.3588,1.2901,0.4885
41818.683,0.5073,7.882,6.0347,0.07,-1.05,0.35,0.8231,-9.7292,-0.4451,3.22,-2.38,-1.19,-0.0287,-0.0862,8.5545,-1.1679,-0.7252,-0.5725,-0.3591,-7.2808,-6.7133,-3.4427,1.229,0.4046
41908.067,0.5216,7.9585,5.9868,1.61,-1.47,0.84,0.8423,-9.7005,-1.407,-3.01,-1.96,-1.12,0.0431,-0.1269,8.5281,-1.1374,-0.7023,-0.6947,-0.3735,-7.2951,-6.7421,-3.1069,1.1679,0.3282
41999.229,0.4929,7.9011,5.9486,-0.21,-1.05,0.98,0.8423,-9.6718,-1.1342,3.01,-1.47,-1.05,0.0431,-0.1053,8.5401,-1.4275,-0.4809,-0.4962,-0.3472,-7.3191,-6.7038,-3.4122,1.0076,0.3588
42090.472,0.5121,7.9825,6.006,1.26,-1.47,0.91,0.8423,-9.7244,-1.4836,0.21,-1.82,-1.12,0.0192,-0.103,8.5401,-1.2061,-0.4733,-0.5878,-0.3089,-7.3143,-6.7564,-3.1145,1.0305,0.3817
42178.983,0.4642,7.9585,5.9725,0.49,-1.19,1.47,0.8136,-9.6383,-0.8231,4.34,-1.47,-0.98,0.012,-0.0766,8.5305,-1.2137,-0.3817,-0.5802,-0.3879,-7.3334,-6.7564,-3.3664,1.0763,0.4046
42268.018,0.469,7.9872,6.0108,0.63,-1.26,1.05,0.871,-9.7101,-1.5027,4.83,-1.26,-0.98,0.0934,-0.1556,8.5186,-1.3359,-0.7786,-0.6565,-0.3232,-7.3119,-6.7229,-3.2824,1.0687,0.4122
42358.074,0.4977,7.9537,5.9821,0.28,-1.19,1.33,0.804,-9.6622,-1.005,-6.3,-2.45,-1.33,-0.0479,-0.0958,8.5473,-1.4275,-0.4885,-0.6489,-0.34,-7.3143,-6.7086,-3.2595,1.1832,0.3664
42478.16,0.4403,8.0207,6.0108,-0.42,-1.05,1.61,0.8327,-9.7531,-0.1819,6.58,-2.17,-1.05,0.0287,-0.1437,8.576,-1.4656,-0.7405,-0.7176,-0.2921,-7.2568,-6.6774,-3.2137,1.1221,0.313
42568.46,0.4929,7.9585,5.9868,0.0,-1.19,1.33,0.8423,-9.6957,-1.3926,-0.21,-1.82,-1.12,0.0694,-0.158,8.497,-1.4656,-0.5573,-0.5802,-0.3831,-7.3239,-6.7325,-3.2901,0.9542,0.4198
42659.903,0.4786,7.949,5.9725,0.77,-1.33,0.98,0.8279,-9.6814,-0.938,4.2,-1.19,-1.12,-0.067,-0.0958,8.4372,-1.5573,-0.7099,-0.6489,-0.316,-7.3023,-6.7253,-3.3511,1.2977,0.4198
42748.726,0.5073,7.9777,5.9916,0.91,-1.4,1.26,0.8183,-9.6814,-1.0672,-2.17,-2.03,-1.19,0.0239,-0.1293,8.5329,-1.2443,-0.7405,-0.4809,-0.3615,-7.3191,-6.7349,-3.1756,1.1221,0.4351
42839.876,0.4881,7.9298,5.9773,-0.42,-1.12,1.33,0.8423,-9.6048,-1.2491,3.29,-1.47,-0.98,0.0383,-0.1053,8.4874,-1.313,-0.4809,-0.4733,-0.3256,-7.2592,-6.7325,-3.313,1.1527,0.2595
42928.79,0.5073,8.0016,6.0012,1.12,-1.4,1.12,0.8518,-9.7005,-1.0528,-4.83,-2.1,-1.26,-0.0431,-0.17,8.5425,-1.5267,-0.6489,-0.3969,-0.34,-7.3287,-6.6726,-3.2824,1.1679,0.3817
43019.904,0.4834,7.9346,5.9868,0.21,-1.19,1.19,0.8471,-9.5952,-0.938,5.74,-1.12,-0.98,-0.0311,-0.0958,8.5377,-1.4504,-0.8092,-0.5344,-0.3017,-7.3215,-6.7229,-3.2977,1.1679,0.3282
43107.888,0.4881,7.9681,6.0012,0.21,-1.12,1.19,0.8614,-9.7196,-1.8999,13.51,-0.28,-0.91,-0.0335,-0.1269,8.5976,-1.5191,-0.6489,-0.5954,-0.2921,-7.2425,-6.7756,-3.2214,1.1374,0.3664
43228.344,0.4786,7.9585,5.9868,0.42,-1.26,1.33,0.7944,-9.6766,-0.7896,-4.69,-2.31,-1.19,0.0431,-0.1389,8.5138,-1.3969,-0.3893,-0.4198,-0.3208,-7.3502,-6.8163,-3.3588,1.3206,0.3817
43319.091,0.4786,7.9729,5.9916,0.7,-1.33,0.91,0.871,-9.7005,-1.407,4.48,-1.19,-1.05,-0.0048,-0.1341,8.576,-1.3893,-0.6489,-0.4962,-0.3017,-7.3167,-6.6056,-3.1221,0.9542,0.4046
43410.576,0.5168,7.9059,5.9821,-0.35,-0.98,1.26,0.7992,-9.6766,-0.8375,-3.22,-2.24,-1.19,0.0024,-0.1939,8.5784,-1.3893,-0.7557,-0.4198,-0.3376,-7.288,-6.7301,-3.2519,1.1985,0.5267
43500.014,0.4881,7.9968,5.9868,1.47,-1.47,0.98,0.8853,-9.6909,-1.4692,1.33,-1.26,-1.05,0.0239,-0.1748,8.5665,-1.3893,-0.5573,-0.5649,-0.2753,-7.2472,-6.7373,-3.2824,1.0611,0.2977
43587.926,0.5025,7.9346,5.9581,0.14,-1.12,1.12,0.8375,-9.6574,-1.2203,0.56,-1.68,-1.12,0.0503,-0.17,8.4348,-1.3817,-0.1985,-0.3893,-0.3591,-7.276,-6.7349,-3.5344,1.313,0.3817
43678.111,0.4786,7.9681,6.0108,-0.07,-1.05,1.26,0.8375,-9.7244,-0.8518,7.63,-0.91,-0.98,-0.0455,-0.0646,8.5545,-1.2901,-0.7023,-0.8321,-0.3807,-7.2808,-6.7397,-3.3359,1.0992,0.5191
43769.165,0.4977,7.9681,5.9964,0.63,-1.26,1.26,0.7992,-9.6335,-1.1342,-3.01,-2.1,-1.19,0.091,-0.1484,8.5641,-1.3359,-0.7099,-0.7099,-0.3112,-7.2688,-6.7469,-3.2519,1.1756,0.2672
43890.145,0.4738,7.949,5.9964,0.21,-1.26,1.12,0.871,-9.6622,-1.2395,5.18,-1.33,-0.91,-0.0168,-0.0934,8.43,-1.3359,-0.7176,-0.6107,-0.3879,-7.3263,-6.6248,-3.3206,1.0458,0.2672
43981.566,0.5025,7.9729,6.0012,0.84,-1.26,1.05,0.8518,-9.7244,-1.0146,-4.13,-2.1,-1.19,-0.0646,-0.1915,8.6119,-1.2214,-0.5954,-0.4885,-0.2801,-7.331,-6.7564,-3.1908,1.1908,0.3511
44072.732,0.4929,7.9442,5.9821,0.42,-1.33,1.05,0.8279,-9.6479,-1.0433,5.32,-1.61,-1.05,0.0144,-0.0934,8.4635,-1.3359,-0.6107,-0.4046,-0.4142,-7.3287,-6.7588,-3.0382,1.0305,0.3664
44158.142,0.5025,7.9633,6.006,0.56,-1.33,1.12,0.8183,-9.7196,-1.2778,-2.17,-2.03,-1.05,0.0766,-0.1532,8.6215,-1.3817,-0.7557,-0.4275,-0.3112,-7.3071,-6.6607,-3.1221,1.1908,0.3588
44248.897,0.4834,7.9155,5.9677,0.14,-1.12,1.12,0.804,-9.6526,-0.871,1.96,-1.54,-1.12,0.0072,-0.0958,8.6311,-1.3893,-0.5496,-0.6107,-0.3615,-7.3143,-6.6966,-3.3435,1.0611,0.2824
44338.143,0.4881,8.016,5.9868,1.19,-1.47,1.05,0.8518,-9.7005,-1.4166,0.0,-1.75,-1.19,-0.012,-0.146,8.6239,-1.4122,-0.4504,-0.4809,-0.3687,-7.3023,-6.6918,-3.4656,1.2366,0.3664
44428.583,0.4738,7.9394,5.9677,-0.21,-1.19,1.12,0.8279,-9.667,-1.0481,1.96,-1.61,-1.05,-0.0263,-0.1772,8.5665,-1.4733,-0.458,-0.5878,-0.3639,-7.2951,-6.6104,-3.2366,1.0763,0.4275
44519.155,0.4786,7.9633,6.0156,0.7,-1.33,1.05,0.8471,-9.7292,-1.4213,15.26,-1.68,-1.12,0.0575,-0.1748,8.6239,-1.4275,-0.5725,-0.626,-0.3448,-7.343,-6.7014,-3.2977,1.0611,0.4198
44638.592,0.5025,7.9298,5.9868,0.77,-1.26,1.05,0.7992,-9.6574,-0.8614,0.35,-2.03,-1.26,0.0383,-0.1508,8.5665,-1.4275,-0.4885,-0.5954,-0.3065,-7.3382,-6.7014,-3.2137,1.0687,0.4046
44730.772,0.4738,7.9633,5.9964,0.35,-1.19,1.05,0.8758,-9.7436,-1.3543,3.5,-1.54,-1.05,0.0958,-0.1484,8.6119,-1.1374,-0.5191,-0.6794,-0.316,-7.2927,-6.699,-3.2901,1.0916,0.4275
44819.472,0.5121,7.9394,5.9964,0.77,-1.19,1.12,0.7848,-9.6814,-0.9332,-2.52,-2.1,-1.33,-0.0551,-0.1317,8.4659,-1.145,-0.6107,-0.7176,-0.3328,-7.3023,-6.6942,-3.3435,1.1908,0.2977
44909.462,0.469,7.9825,5.9821,0.49,-1.19,1.05,0.8471,-9.7005,-1.206,3.85,-1.33,-1.05,0.0192,-0.1437,8.5545,-1.4504,-0.8015,-0.5878,-0.3041,-7.3215,-6.7277,-3.0687,1.1908,0.4275
44997.908,0.5073,7.9442,5.9773,0.56,-1.19,0.7,0.8375,-9.7819,-0.5886,-0.28,-1.89,-1.12,0.079,-0.158,8.521,-1.2748,-0.6183,-0.5954,-0.3017,-7.2592,-6.6272,-3.0076,1.084,0.4198
45089.31,0.4738,7.949,6.006,0.49,-1.4,0.91,0.8375,-9.6574,-1.1294,1.96,-1.61,-1.12,0.0239,-0.158,8.5832,-1.2901,-0.374,-0.5573,-0.3256,-7.2377,-6.6463,-2.9542,1.1374,0.2519
45178.222,0.5264,8.0016,6.0156,1.33,-1.47,0.91,0.8183,-9.7196,-1.1629,-3.99,-2.03,-1.19,0.0072,-0.1724,8.5617,-1.374,-0.3969,-0.6183,-0.328,-7.2592,-6.7612,-3.3588,1.1527,0.3053
45297.347,0.4786,7.9059,5.9773,-0.35,-1.05,1.26,0.8614,-9.667,-1.0672,4.34,-1.33,-1.05,0.0359,-0.1293,8.588,-1.2748,-0.4962,-0.4809,-0.3089,-7.2927,-6.6583,-3.2443,1.2061,0.3817
45387.856,0.4642,8.0064,5.9916,1.96,-1.4,0.56,0.8614,-10.0451,-1.6271,-4.97,-2.59,-1.19,0.091,-0.1604,8.576,-1.5573,-0.1832,-0.7557,-0.3879,-7.2999,-6.6463,-3.2214,1.0687,0.2519
45480.946,0.5073,7.9346,5.9964,0.98,-1.26,0.84,0.804,-9.6383,-0.5503,-0.84,-1.96,-1.19,-0.0359,-0.1437,8.4659,-1.458,-0.7557,-0.458,-0.3424,-7.3071,-6.7038,-3.0763,1.0458,0.4275
45569.958,0.4786,7.9585,6.0108,0.63,-1.26,0.91,0.8758,-9.7196,-1.5458,3.99,-1.33,-1.12,0.0886,-0.1269,8.5234,-1.2519,-0.4351,-0.4046,-0.3567,-7.276,-6.6679,-3.2901,0.9618,0.3588
45659.484,0.5168,7.9777,5.9964,0.56,-1.19,1.05,0.7992,-9.6766,-0.6604,-1.82,-2.45,-1.12,-0.0311,-0.0838,8.4731,-1.5115,-0.6641,-0.5802,-0.3807,-7.2951,-6.7277,-3.1069,1.0687,0.1908
45749.508,0.4594,7.9681,6.0108,0.91,-1.4,1.05,0.8088,-9.6909,-1.5314,3.36,-1.12,-1.05,0.0168,-0.1628,8.5162,-1.2519,-0.5496,-0.313,-0.3687,-7.3478,-6.7181,-3.1679,1.1374,0.3435
45928.432,0.4834,7.9825,5.9964,0.56,-1.4,1.19,0.8614,-9.6861,-1.4213,3.64,-1.4,-1.05,0.067,-0.1437,8.4851,-1.4733,-0.6489,-0.5115,-0.395,-7.3478,-6.7852,-3.2061,1.1679,0.3053
46048.044,0.5073,7.9681,5.9868,0.98,-1.33,1.26,0.8423,-9.667,-0.9141,-6.16,-2.45,-1.26,-0.0239,-0.0886,8.5162,-1.2366,-0.5802,-0.7023,-0.3543,-7.3502,-6.79,-3.1832,1.1603,0.3893
46139.652,0.4881,7.9585,5.9868,-0.07,-1.12,1.05,0.8614,-9.7053,-1.5027,7.49,-1.05,-1.05,0.0263,-0.0982,8.5018,-1.4809,-0.7481,-0.5649,-0.3424,-7.2832,-6.7253,-3.229,1.2214,0.2824
46230.025,0.5168,7.9777,6.0108,0.84,-1.4,0.98,0.8375,-9.7149,-1.4405,2.45,-1.4,-0.98,0.0527,-0.1532,8.4348,-1.1756,-0.3435,-0.7405,-0.3496,-7.3215,-6.6487,-3.4046,1.1603,0.3969
46318.436,0.4738,7.9585,5.9725,0.42,-1.33,1.12,0.8375,-9.6479,-0.9093,5.74,-1.26,-0.91,-0.0335,-0.146,8.5281,-1.3435,-0.4198,-0.4962,-0.2993,-7.2951,-6.7397,-3.2977,1.145,0.4046
46409.208,0.4977,7.9633,6.0251,0.63,-1.19,1.05,0.8662,-9.7244,-1.3065,0.7,-1.75,-0.98,0.0455,-0.1676,8.5665,-1.3969,-0.6489,-0.771,-0.3783,-7.2712,-6.7086,-3.2519,1.0,0.4122
46498.267,0.4977,7.949,5.9868,0.07,-1.26,1.12,0.804,-9.6909,-0.9188,1.05,-1.68,-1.12,0.0192,-0.1556,8.5832,-1.2595,-0.5038,-0.7176,-0.3687,-7.3358,-6.6415,-3.2672,0.9237,0.313
46589.448,0.4929,7.992,6.0108,1.47,-1.47,0.98,0.8566,-9.7005,-1.3687,1.05,-1.68,-1.12,0.0862,-0.1915,8.5976,-1.3206,-0.5496,-0.7786,-0.2729,-7.3263,-6.7133,-3.2977,0.9618,0.3969
46710.325,0.5073,7.9394,5.9773,-0.42,-1.12,1.26,0.8183,-9.6718,-0.8758,-1.19,-1.96,-1.12,-0.0215,-0.1556,8.6095,-1.3053,-0.6718,-0.5038,-0.34,-7.3047,-6.6846,-3.3206,1.2519,0.4046
46798.956,0.4977,7.9633,6.0395,1.61,-1.54,1.12,0.8566,-9.7196,-1.3783,0.07,-1.47,-1.05,-0.0096,-0.1484,8.5401,-1.2595,-0.458,-0.5649,-0.3783,-7.3287,-6.6391,-3.3282,1.0611,0.542
46888.206,0.4977,7.9729,6.0108,0.63,-1.33,1.19,0.8327,-9.6335,-0.871,0.28,-1.75,-1.12,-0.0383,-0.1604,8.521,-1.3282,-0.458,-0.5115,-0.2753,-7.3143,-6.6104,-3.3206,1.0611,0.4046
46979.216,0.4881,7.949,5.9868,0.42,-1.26,0.98,0.8471,-9.7484,-1.3831,3.71,-1.4,-1.05,0.0479,-0.1724,8.521,-1.542,-0.5496,-0.6565,-0.3855,-7.2784,-6.7038,-3.5038,1.2214,0.3435
47068.108,0.5168,7.9537,6.0251,0.35,-1.19,1.05,0.7992,-9.6909,-1.0528,-3.99,-2.31,-1.26,0.0527,-0.1245,8.521,-1.1985,-0.5573,-0.687,-0.3735,-7.3215,-6.6152,-3.2672,1.1298,0.4275
47163.118,0.4881,7.9681,5.9725,0.91,-1.4,1.05,0.8662,-9.6814,-1.4261,3.5,-1.4,-1.05,0.0718,-0.0934,8.5329,-1.4275,-0.7176,-0.4962,-0.3448,-7.2951,-6.7181,-3.1756,1.2748,0.4733
47251.072,0.5121,7.9442,5.9821,0.63,-1.19,1.05,0.8279,-9.6909,-1.1916,-0.84,-2.03,-1.12,0.0742,-0.158,8.418,-1.229,-0.4962,-0.5802,-0.3184,-7.3191,-6.7469,-3.1756,1.1985,0.3817
47340.805,0.4786,7.9394,5.9773,0.49,-1.33,1.05,0.8518,-9.6957,-1.1198,2.73,-1.61,-1.12,0.0144,-0.1772,8.5856,-1.2824,-0.626,-0.5267,-0.3543,-7.3023,-6.7229,-3.2977,1.0,0.4275
47460.37,0.4977,7.9968,5.9773,0.98,-1.47,1.12,0.8423,-9.7149,-1.3017,-0.77,-1.96,-1.12,0.0383,-0.1772,8.5186,-1.2443,-0.5725,-0.6107,-0.3424,-7.3095,-6.79,-3.0076,1.1527,0.374
47549.756,0.4738,7.925,5.9821,-0.35,-1.05,1.12,0.8518,-9.6526,-0.8423,1.12,-1.68,-1.12,0.0311,-0.2083,8.5353,-1.4962,-0.4809,-0.6183,-0.2682,-7.3023,-6.7516,-3.1603,1.0458,0.3511
47638.614,0.4977,7.9872,6.0108,1.26,-1.33,0.98,0.8566,-9.734,-1.4692,2.31,-1.54,-1.19,0.0622,-0.0646,8.5665,-1.3588,-0.7023,-0.6183,-0.3687,-7.3095,-6.7373,-3.1298,1.0687,0.3053
47729.703,0.4881,7.9729,5.9725,0.49,-1.33,1.12,0.8231,-9.6383,-0.8327,1.19,-1.75,-1.12,0.0551,-0.1293,8.509,-1.4733,-0.4198,-0.5115,-0.3496,-7.3263,-6.7684,-3.3588,1.1298,0.2824
47820.434,0.5073,8.0016,5.9868,0.98,-1.33,1.05,0.8806,-9.7292,-1.6271,1.33,-1.12,-1.05,0.012,-0.1772,8.4874,-1.1374,-0.5802,-0.5038,-0.3448,-7.3334,-6.7181,-3.1298,1.2061,0.4198
47910.191,0.4546,7.9346,5.9916,-0.28,-1.05,1.26,0.8231,-9.6622,-0.5791,-5.32,-2.8,-1.26,0.0503,-0.1844,8.4491,-1.3588,-0.5267,-0.5267,-0.2993,-7.2808,-6.7181,-3.3053,1.145,0.5496
47999.518,0.469,7.9968,6.006,1.26,-1.47,1.12,0.8423,-9.7196,-1.6654,-3.92,-2.03,-1.05,0.0503,-0.1269,8.442,-1.2366,-0.7863,-0.4427,-0.2921,-7.3095,-6.7325,-2.8702,1.1145,0.3893
48117.834,0.5121,7.9633,5.9581,0.35,-1.19,1.26,0.8231,-9.6287,-0.9667,-0.63,-1.89,-1.19,0.0551,-0.1772,8.5569,-1.4656,-0.5573,-0.4122,-0.1652,-8.1211,-6.6104,-8.1985,7.374,6.145
48208.518,0.4929,7.9825,5.9868,0.56,-1.26,1.05,0.8518,-9.7484,-1.3496,6.44,-1.19,-1.12,-0.0431,-0.2107,8.5736,-1.4046,-0.8015,-0.4504,-0.4908,-5.8371,-7.1706,-23.3359,-0.1298,15.3893
48298.047,0.5121,7.9585,6.0012,0.7,-1.33,1.05,0.8136,-9.6861,-0.9045,-0.49,-1.89,-1.12,0.0407,-0.1652,8.5952,-1.2443,-0.8092,-0.5954,-0.3711,-7.0773,-6.9935,-2.542,0.3664,-0.2595
48387.616,0.4546,7.9585,5.9868,0.35,-1.19,0.98,0.8758,-9.6861,-1.6175,4.34,-1.05,-1.05,0.012,-0.1197,8.5066,-1.1603,-0.313,-0.2824,-0.2131,-7.0892,-6.8738,-3.0153,7.3664,7.0611
48477.832,0.5025,7.9585,6.0156,0.0,-1.19,0.91,0.8183,-9.7244,-1.4836,2.66,-1.12,-1.12,0.0263,-0.1604,8.5018,-1.5725,-0.687,-0.5038,-0.3998,-6.9719,-7.0677,-3.1985,2.0382,1.1756
48568.555,0.5025,7.9633,5.9773,0.98,-1.33,1.12,0.8518,-9.6335,-1.0146,13.51,-0.35,-0.84,0.0766,-0.1293,8.5545,-1.3359,-0.6107,-0.458,-0.4046,-7.0868,-6.9384,-3.145,1.2901,0.4427
48658.251,0.5073,7.9681,6.006,0.84,-1.33,1.12,0.8279,-9.734,-1.5458,1.47,-1.61,-1.05,0.0838,-0.1389,8.5353,-1.313,-0.4733,-0.4962,-0.3903,-7.0653,-6.9456,-3.3893,1.0687,0.4504
48747.935,0.4594,7.925,5.9821,-0.14,-1.19,1.26,0.7848,-9.5761,0.0526,-6.58,-2.59,-1.33,0.0622,-0.1604,8.5234,-1.2977,-0.5344,-0.6718,-0.3424,-7.0892,-6.9432,-3.4351,1.1756,0.5115
48868.885,0.5073,7.9872,5.9964,1.19,-1.4,0.91,0.8518,-9.7292,-1.5745,5.25,-1.26,-1.12,0.0024,-0.0622,8.6143,-1.2901,-0.4733,-0.5115,-0.3376,-7.0485,-6.9983,-3.2595,1.1756,0.3206
48959.404,0.469,7.9537,5.9533,0.14,-1.33,1.12,0.7992,-9.6766,-0.9476,2.31,-1.75,-1.12,0.0144,-0.1676,8.5593,-1.4504,-0.687,-0.687,-1.7071,-6.8809,-6.5625,7.3359,33.5191,34.916
49048.264,0.4786,7.992,6.0012,1.33,-1.33,0.84,0.8662,-9.7484,-1.7659,-2.8,-1.05,-0.91,-0.0096,-0.158,8.5545,-1.374,-0.5954,-0.5725,-1.0415,-7.0294,-6.9887,-1.4962,-15.084,-18.374
49137.832,0.5073,7.9394,6.0108,0.63,-1.19,1.12,0.804,-9.6574,-0.6748,3.36,-1.4,-1.12,0.0048,-0.1149,8.497,-1.3206,-0.5954,-0.4122,-0.3879,-7.0246,-6.9408,-3.3969,1.1527,0.458
49228.649,0.5025,7.9585,5.9916,0.7,-1.4,0.91,0.8423,-9.7388,-1.4596,4.69,-1.19,-1.05,0.0192,-0.1101,8.5042,-1.5267,-0.8626,-0.6336,-0.3807,-7.0485,-6.9599,-3.2824,0.9924,0.2595
49319.419,0.5025,7.9729,5.9916,0.42,-1.26,1.05,0.804,-9.6766,-0.737,-4.97,-2.31,-1.26,0.012,-0.0503,8.5617,-1.5725,-0.7099,-0.6031,-0.3735,-7.0413,-7.0964,-3.0992,1.1679,0.3893
49408.238,0.4834,7.992,6.0012,1.61,-1.54,0.98,0.8471,-9.6861,-1.3591,5.04,-1.26,-1.05,-0.0503,-0.1221,8.6095,-1.4351,-0.6107,-0.3969,-0.4453,-7.0006,-6.8977,-3.3588,1.1527,0.3817
49530.175,0.5121,7.9537,5.9773,0.07,-1.05,1.19,0.8183,-9.6909,-1.1246,-1.12,-1.82,-1.12,0.0359,-0.1101,8.5425,-1.4275,-0.4885,-0.5038,-0.3352,-7.0006,-7.0533,-3.3206,1.0458,0.3588
49649.332,0.4977,7.9681,6.0203,0.07,-1.19,1.05,0.8614,-9.6814,-1.1007,2.38,-1.47,-1.12,0.0072,-0.079,8.5425,-1.3664,-0.4504,-0.4427,-0.3496,-7.0246,-6.924,-3.0687,1.1908,0.2519
49711.342,0.4977,7.9729,5.9773,1.05,-1.33,1.19,0.8136,-9.6814,-1.1246,-1.96,-2.03,-1.12,0.0168,-0.17,8.5712,-1.229,-0.6641,-0.6107,-0.3543,-7.0413,-7.0318,-3.3053,1.1756,0.2214
49800.17,0.4594,7.9298,5.9964,0.21,-1.12,1.05,0.8327,-9.6957,-1.0193,3.85,-1.33,-1.12,0.0455,-0.0814,8.5808,-1.4733,-0.6641,-0.4809,-0.407,-7.094,-7.0126,-3.3053,1.084,0.3969
49890.064,0.4881,7.9968,6.0203,1.19,-1.4,1.12,0.8518,-9.7101,-1.2634,-1.19,-1.89,-1.19,0.0072,-0.237,8.5018,-1.229,-0.458,-0.7481,-0.3687,-7.0605,-6.9815,-3.3588,1.2595,0.3359
49980.712,0.4881,7.9537,6.0108,0.56,-1.26,1.12,0.8327,-9.6622,-0.9428,0.77,-1.82,-0.98,-0.0048,-0.1341,8.6,-1.3053,-0.5115,-0.4733,-0.3831,-7.0485,-6.9073,-3.5573,1.0382,0.4275
50067.995,0.4881,7.9681,5.9964,0.63,-1.26,1.26,0.8471,-9.7244,-1.3831,-1.54,-1.75,-0.98,-0.0144,-0.17,8.5545,-1.2748,-0.5038,-0.6565,-0.3639,-7.0964,-6.9336,-3.313,1.1832,0.2137
50158.449,0.4881,7.9107,5.9773,0.21,-1.12,1.19,0.8327,-9.6622,-0.9667,2.1,-1.61,-1.12,-0.012,-0.1891,8.5281,-1.3969,-0.2672,-0.7023,-0.4094,-7.1012,-7.1012,-3.1679,1.229,0.2901
50278.091,0.4977,8.0112,6.0156,1.33,-1.47,0.98,0.8327,-9.6718,-1.2491,-0.35,-1.82,-1.12,0.0431,-0.1293,8.4707,-1.3893,-0.7939,-0.3435,-0.3807,-7.0102,-6.9695,-3.2137,1.1145,0.542
50368.071,0.4977,7.9202,6.0012,-0.42,-1.05,1.26,0.8279,-9.6718,-0.9332,1.4,-1.68,-1.05,-0.0311,-0.0814,8.5808,-1.3969,-0.7939,-0.6565,-0.3639,-7.0413,-6.9456,-3.2061,0.9924,0.4122
50460.366,0.4786,7.9585,6.0156,0.84,-1.4,0.98,0.8806,-9.7436,-1.4596,2.03,-1.61,-1.12,0.091,-0.1437,8.5497,-1.4275,-0.6183,-0.542,-0.3232,-7.0342,-6.9456,-3.2366,1.1221,0.3511
50547.961,0.4929,7.9537,5.9773,0.49,-1.19,1.33,0.7801,-9.6814,-0.7801,-2.38,-2.03,-1.26,-0.0168,-0.1293,8.5712,-1.2977,-0.4885,-0.4504,-0.4214,-7.0126,-6.9719,-3.3435,1.2061,0.4427
50638.324,0.4786,7.9777,5.9725,0.35,-1.26,1.05,0.8901,-9.6766,-1.4405,4.83,-1.12,-0.91,0.0646,-0.1389,8.5138,-1.3817,-0.5344,-0.626,-0.4142,-7.0653,-6.9647,-3.1145,1.1298,0.3435
50728.269,0.5025,7.9442,5.9821,0.56,-1.33,1.05,0.804,-9.6814,-0.8758,-3.43,-2.17,-1.26,0.0168,-0.1221,8.6,-1.3893,-0.4351,-0.6947,-0.3615,-7.0629,-6.9216,-3.313,1.1908,0.4504
50818.026,0.4977,7.9633,5.9821,0.7,-1.33,1.12,0.8279,-9.6622,-1.2491,4.55,-1.26,-1.05,0.0287,-0.1149,8.4707,-1.4962,-0.4733,-0.7863,-0.3663,-7.1084,-6.9073,-3.3282,1.0992,0.4046
50938.7,0.4929,7.9729,6.006,0.63,-1.19,1.19,0.8183,-9.7101,-1.206,-1.82,-2.03,-1.12,0.0,-0.091,8.4156,-1.4809,-0.2901,-0.542,-0.3136,-7.0174,-7.0102,-3.1374,1.313,0.4427
51031.468,0.4642,7.9442,5.9677,0.35,-1.12,1.05,0.8614,-9.667,-1.1868,4.06,-1.4,-1.05,0.0575,-0.1437,8.5952,-1.458,-0.542,-0.6183,-0.3352,-7.0437,-6.9839,-3.1221,1.1069,0.2672
51118.538,0.536,8.0112,5.9964,1.26,-1.4,0.98,0.8231,-9.6909,-1.0433,-4.2,-2.24,-1.26,-0.0527,-0.1269,8.5234,-1.4885,-0.6718,-0.5267,-0.4094,-7.0485,-6.9456,-3.2137,1.1069,0.313
51210.053,0.4929,7.949,5.9773,-0.07,-1.12,1.19,0.804,-9.667,-1.0337,4.41,-1.61,-1.12,0.0527,-0.1556,8.5066,-1.2901,-0.4885,-0.458,-0.4286,-7.0366,-6.9863,-3.1603,0.9466,0.4656
51298.077,0.4977,7.9681,6.006,0.84,-1.33,0.98,0.8471,-9.7484,-1.4357,-2.66,-2.03,-1.05,0.079,-0.1269,8.5617,-1.3511,-0.4962,-0.5725,-0.3184,-7.0126,-6.9911,-3.3359,1.1527,0.374
51388.25,0.4642,7.9537,5.9868,0.42,-1.26,1.19,0.8136,-9.6574,-0.7848,1.19,-1.61,-1.05,0.0263,-0.1556,8.509,-1.3817,-0.2214,-0.7023,-0.3831,-7.003,-7.0485,-3.1527,1.0611,0.3893
51477.157,0.4929,7.9633,5.9916,0.84,-1.33,0.91,0.8423,-9.7101,-1.3065,2.73,-1.61,-1.05,0.0527,-0.1293,8.5641,-1.2901,-0.5954,-0.458,-0.4022,-7.0246,-7.1156,-3.1603,1.0992,0.4504
51568.693,0.5216,7.9442,6.0012,0.0,-1.12,1.05,0.8231,-9.6574,-0.8853,-0.98,-1.89,-1.12,0.0287,-0.1317,8.5353,-1.374,-0.4962,-0.5573,-0.3855,-7.0916,-7.0246,-3.4046,0.9924,0.2824
51689.852,0.4834,8.0064,6.0156,1.05,-1.47,0.98,0.8662,-9.7053,-1.4405,3.22,-1.05,-1.05,-0.0072,-0.1197,8.5258,-1.229,-0.4885,-0.5267,-0.3639,-7.0749,-6.9528,-3.1603,1.1832,0.3206
51778.076,0.5168,7.9298,5.9581,0.49,-1.19,1.12,0.8183,-9.667,-0.9476,2.94,-1.82,-1.19,0.0,-0.1532,8.4803,-1.229,-0.5878,-0.7099,-0.34,-7.0916,-6.9959,-3.2977,1.0916,0.3282
51872.074,0.4834,7.9681,5.9916,0.21,-1.26,1.05,0.8806,-9.6766,-1.2538,2.52,-1.47,-1.12,0.0718,-0.1173,8.5066,-1.2824,-0.3664,-0.5191,-0.3879,-7.0581,-7.0533,-3.145,1.1679,0.4351
51958.357,0.5216,7.9777,5.9821,0.98,-1.4,1.19,0.8327,-9.6814,-1.2682,-4.97,-2.24,-1.05,-0.012,-0.0982,8.5593,-1.2672,-0.6412,-0.4733,-0.3232,-7.003,-6.9049,-3.3206,1.1603,0.5573
52048.295,0.4834,7.9346,5.9868,0.63,-1.26,1.05,0.8375,-9.7005,-1.0959,12.95,-0.42,-0.84,-0.0335,-0.1628,8.5808,-1.1298,-0.4656,-0.542,-0.3591,-7.0413,-7.0222,-3.084,0.9847,0.4122
52138.158,0.4929,7.9681,6.0012,0.42,-1.12,1.19,0.8279,-9.7053,-0.9093,-3.5,-2.17,-1.19,0.012,-0.1748,8.4779,-1.2748,-0.542,-0.771,-0.3567,-7.0653,-6.9264,-3.1908,1.2137,0.3359
52230.216,0.4786,7.9585,6.0156,-0.14,-1.19,1.19,0.8375,-9.6622,-1.2491,2.17,-1.47,-0.98,0.1077,-0.2059,8.5234,-1.2366,-0.4656,-0.7023,-0.3759,-7.015,-6.9839,-3.2366,1.8855,1.2977
52349.932,0.5073,7.9872,5.9964,1.33,-1.47,1.05,0.8088,-9.7053,-1.005,-3.43,-2.17,-1.33,0.0048,-0.067,8.43,-1.2824,-0.6107,-0.7252,-0.3759,-7.0413,-6.9432,-3.1298,1.0687,0.3664
52438.704,0.4786,7.949,5.9629,-0.07,-1.19,0.98,0.8518,-9.6383,-1.0911,3.99,-1.47,-1.12,0.0168,-0.0838,8.5497,-1.4809,-0.7328,-0.626,-0.395,-7.0461,-6.9863,-3.2519,1.2214,0.4427
52619.693,0.5073,7.949,5.9916,0.07,-1.19,1.19,0.8231,-9.6383,-0.9906,1.4,-1.54,-1.12,0.0192,-0.1652,8.5521,-1.4198,-0.7557,-0.2977,-0.4357,-7.0797,-6.9073,-3.3053,1.1069,0.3664
52800.875,0.5168,7.925,5.9964,-0.14,-1.19,1.05,0.8183,-9.6431,-0.8183,-1.61,-2.17,-1.26,-0.0503,-0.103,8.5258,-1.1679,-0.5725,-0.6794,-0.3663,-7.0461,-6.9791,-3.1298,1.1679,0.4275
52893.683,0.4786,8.0064,5.9868,1.19,-1.4,1.05,0.8662,-9.7005,-1.2969,3.71,-1.4,-1.05,0.0527,-0.067,8.4755,-1.3664,-0.5954,-0.6489,-0.3496,-7.0222,-7.015,-3.2061,1.0992,0.3053
52979.794,0.4977,7.9442,5.9677,0.21,-1.12,1.4,0.8088,-9.6622,-1.0672,-2.1,-1.96,-1.12,0.0694,-0.1796,8.5018,-1.2901,-0.4122,-0.4885,-0.4118,-7.0174,-6.9264,-3.4504,1.0076,0.4885
53097.969,0.4834,7.9585,6.0012,0.14,-1.12,1.05,0.8806,-9.7244,-1.3735,2.03,-1.61,-1.05,0.0168,-0.067,8.6024,-1.4885,-0.6107,-0.5573,-0.3711,-7.0533,-7.0174,-3.1908,1.084,0.3969
53187.903,0.5073,7.9394,6.0251,1.05,-1.4,0.98,0.8279,-9.6718,-0.9476,-3.15,-2.17,-1.33,-0.0503,-0.0622,8.5018,-1.2824,-0.4656,-0.6183,-0.3855,-7.0437,-6.8905,-3.3511,1.0076,0.4885
53278.166,0.5073,7.9298,6.0012,0.21,-1.19,0.91,0.8662,-9.6718,-1.2969,4.97,-1.19,-0.91,0.0359,-0.1245,8.5473,-1.2748,-0.9008,-0.6107,-0.3591,-7.0533,-7.0844,-3.2977,1.0763,0.3969
53369.07,0.5168,7.9633,6.0108,0.77,-1.33,1.05,0.8662,-9.6861,-1.005,-4.06,-2.17,-1.26,0.0144,-0.1053,8.6263,-1.4351,-0.7252,-0.5802,-0.395,-7.0701,-7.0246,-3.2595,1.0611,0.3206
53458.747,0.4738,7.949,5.9916,0.49,-1.33,1.12,0.8183,-9.6383,-1.0098,4.27,-1.4,-1.05,-0.0335,-0.1437,8.5473,-1.2824,-0.6565,-0.4351,-0.4022,-7.027,-6.9863,-3.1603,1.0687,0.3435
53549.52,0.5025,7.9825,6.0156,0.91,-1.4,0.98,0.8183,-9.7101,-1.3208,-5.53,-2.31,-1.26,0.0431,-0.1149,8.6287,-1.2672,-0.5878,-0.5725,-0.3759,-7.039,-6.9719,-3.1908,1.1985,0.3588
53640.488,0.4977,7.9442,6.006,0.14,-1.19,1.12,0.8566,-9.6431,-1.0002,3.5,-1.4,-1.05,-0.0168,-0.1317,8.6048,-1.3969,-0.7252,-0.4122,-0.3567,-7.0749,-6.9935,-3.1756,1.0076,0.4656
53758.065,0.4977,8.0016,6.006,1.4,-1.33,1.12,0.8471,-9.7053,-1.2251,-0.77,-1.82,-1.12,0.0766,-0.1173,8.5138,-1.4046,-0.5496,-0.7176,-0.3711,-7.0198,-6.9216,-3.313,1.0763,0.4809
53848.441,0.4834,7.9394,5.9342,0.14,-1.26,1.47,0.8183,-9.6,-1.0863,5.6,-1.19,-0.98,0.0215,-0.1867,8.5736,-1.4122,-0.5267,-0.4885,-0.3376,-7.0677,-6.9599,-3.1145,1.0916,0.4656
53938.248,0.4834,7.9825,5.9916,0.49,-1.19,0.98,0.8614,-9.7436,-1.2778,-1.33,-1.75,-1.12,0.0072,-0.1628,8.4779,-1.5725,-0.4275,-0.5496,-0.4286,-7.0533,-6.9791,-3.313,1.2214,0.5038
54028.43,0.4929,7.925,5.9821,-0.07,-1.12,1.12,0.8231,-9.6526,-0.8375,-5.32,-2.38,-1.26,0.0455,-0.1317,8.4827,-1.4351,-0.6489,-0.5038,-0.328,-7.0485,-6.9719,-3.229,1.084,0.3435
54119.619,0.4834,7.9585,5.9916,0.77,-1.33,1.12,0.8279,-9.7149,-0.7178,-1.68,-1.96,-1.05,0.0431,-0.1317,8.5569,-1.313,-0.5573,-0.7176,-0.4118,-7.0318,-7.0437,-3.313,1.0458,0.3664
54208.024,0.5121,7.949,5.9821,-0.14,-1.05,1.12,0.8231,-9.6766,-0.9571,-1.96,-1.96,-1.12,-0.0144,-0.1556,8.4707,-1.4504,-0.4809,-0.4656,-0.3687,-7.1012,-6.9695,-3.2214,1.0992,0.5191
54298.19,0.4977,7.9729,6.006,0.56,-1.33,1.12,0.8471,-9.7053,-1.0576,0.49,-1.75,-1.12,0.0455,-0.1484,8.5258,-1.5191,-0.5191,-0.4733,-0.3974,-7.1156,-6.9887,-3.2061,1.1832,0.3359
54388.269,0.5168,7.9537,5.9964,0.91,-1.33,1.05,0.804,-9.6957,-1.0193,-1.4,-2.1,-1.05,0.0072,-0.0934,8.497,-1.4122,-0.6183,-0.4122,-0.4094,-7.0174,-6.9025,-3.1221,1.1908,0.3588
54508.039,0.4786,7.9729,5.9725,0.07,-1.26,1.05,0.8471,-9.6909,-1.2299,3.85,-1.33,-1.12,-0.0048,-0.1724,8.6095,-1.2748,-0.6031,-0.4656,-0.4453,-7.0844,-7.0437,-3.4198,1.2061,0.3817
54599.419,0.5025,7.9872,6.0251,1.26,-1.47,1.05,0.8088,-9.7005,-1.1725,-0.14,-1.82,-1.19,0.0455,-0.1293,8.509,-1.3206,-0.5115,-0.5725,-0.407,-7.015,-6.8833,-3.313,1.0916,0.4275
54688.116,0.4786,8.0064,5.9677,-0.14,-1.05,1.47,0.8375,-9.667,-0.3876,3.92,-1.33,-0.98,0.0287,-0.1604,8.5066,-1.4198,-0.3511,-0.5878,-0.3232,-6.9959,-7.0294,-3.3588,1.1298,0.4809
54778.163,0.4834,8.0112,6.0108,0.49,-1.33,1.12,0.8566,-9.7101,-1.4836,0.35,-1.82,-1.12,0.0359,-0.1963,8.509,-1.3053,-0.687,-0.4809,-0.3759,-7.0078,-6.9887,-3.1985,1.0916,0.4351
54871.589,0.4642,7.9298,5.9773,-0.42,-1.05,1.26,0.8088,-9.6144,-0.7226,-2.1,-2.03,-1.19,-0.0359,-0.1652,8.4563,-1.3511,-0.7863,-0.3664,-0.4597,-7.039,-7.0892,-3.1908,1.2061,0.4504
54959.92,0.4881,8.0064,5.9868,1.19,-1.4,0.98,0.8614,-9.7149,-1.4309,1.61,-1.4,-1.12,0.079,-0.1604,8.5952,-1.3664,-0.6565,-0.4122,-0.407,-7.0437,-6.9528,-3.1908,1.229,0.4122
55049.657,0.4929,7.9346,5.9821,-0.07,-1.05,0.98,0.8088,-9.6766,-0.8183,1.05,-2.03,-1.19,0.091,-0.1532,8.4611,-1.2061,-0.6107,-0.5802,-0.3328,-7.0773,-7.003,-3.1221,1.0153,0.4809
55168.151,0.4881,8.0016,6.0299,1.05,-1.33,0.98,0.8518,-9.7388,-1.5075,0.77,-1.75,-1.05,0.0263,-0.1053,8.4731,-1.5954,-0.4809,-0.5649,-0.328,-7.0006,-6.9121,-3.2595,1.2595,0.3817
55257.821,0.4881,7.9585,6.0299,-0.07,-1.19,0.7,0.8231,-9.7627,-1.3591,-2.87,-2.17,-1.19,0.0,-0.158,8.5545,-1.3969,-0.5954,-0.6641,-0.3448,-7.0533,-7.003,-3.3206,1.0,0.4122
55348.056,0.4929,7.9681,5.9868,0.84,-1.47,0.77,0.8614,-9.7053,-1.1198,1.4,-1.68,-1.05,0.0599,-0.1365,8.4946,-1.4046,-0.3969,-0.6641,-0.3783,-7.0198,-7.1036,-3.2443,1.1603,0.5115
55441.519,0.4977,7.9777,5.9868,0.98,-1.26,1.12,0.804,-9.667,-0.9188,-3.43,-2.17,-1.19,0.0383,-0.0622,8.5377,-1.2061,-0.374,-0.4809,-0.3879,-7.0198,-7.0078,-3.2366,1.0916,0.3664
55530.796,0.469,7.9681,5.9868,0.56,-1.26,1.05,0.8471,-9.6814,-1.2443,3.36,-1.4,-1.05,0.0215,-0.1053,8.4515,-1.5115,-0.5191,-0.5267,-0.4022,-7.0318,-7.0892,-3.4962,1.229,0.3588
55623.55,0.5216,7.9681,5.9964,0.14,-1.12,1.12,0.7992,-9.7244,-1.2969,-2.87,-1.89,-1.12,0.0862,-0.1365,8.5377,-1.2901,-0.6794,-0.4504,-0.3735,-7.003,-7.0246,-3.3206,1.2061,0.2901
55708.499,0.4881,7.9681,6.0012,0.63,-1.12,1.19,0.8375,-9.6239,-0.9906,3.22,-1.54,-1.12,0.0168,-0.103,8.4372,-1.5038,-0.7786,-0.6565,-0.3328,-7.0677,-7.0413,-3.2061,1.1756,0.4351
55798.727,0.5121,7.9729,5.9725,0.63,-1.47,1.12,0.8231,-9.6814,-1.2969,-0.07,-1.75,-1.19,0.0192,-0.2179,8.6191,-1.1908,-0.4504,-0.3817,-0.3855,-7.0126,-6.9408,-3.1298,1.0305,0.458
55919.579,0.4786,7.9442,6.0156,-0.21,-0.98,1.05,0.8423,-9.6574,-1.1964,4.2,-1.26,-0.98,0.0192,-0.103,8.5018,-1.3893,-0.4656,-0.4122,-0.3831,-7.0294,-6.9312,-3.1832,1.0687,0.4504
56009.742,0.5025,7.9825,6.006,1.19,-1.33,1.12,0.8662,-9.7196,-1.1438,-2.1,-2.03,-1.19,0.091,-0.146,8.5377,-1.3511,-0.4275,-0.4122,-0.431,-7.0413,-7.0485,-3.3053,1.0458,0.2672
56133.452,0.4786,7.9346,5.9725,-0.28,-1.05,1.19,0.8375,-9.6431,-1.1629,4.13,-1.54,-0.98,0.0072,-0.0694,8.4491,-1.2595,-0.5878,-0.6107,-0.3783,-7.0509,-6.9719,-3.2977,1.0076,0.4351
56190.128,0.4881,7.9872,6.0108,1.26,-1.47,1.26,0.8375,-9.7244,-1.34,-2.94,-1.75,-1.12,0.0144,-0.1125,8.497,-1.3588,-0.6489,-0.7252,-0.3567,-7.0318,-6.9911,-3.3435,1.0153,0.4275
56278.616,0.5121,7.9729,5.9581,0.63,-1.19,1.19,0.8231,-9.6861,-0.8471,2.38,-1.61,-1.26,0.0718,-0.1413,8.5018,-1.4275,-0.3893,-0.687,-0.407,-7.015,-6.9408,-3.2214,1.1527,0.374
56367.864,0.4834,7.9825,6.0012,0.49,-1.26,0.98,0.8566,-9.7149,-1.4309,2.03,-1.54,-1.12,0.0479,-0.1484,8.5808,-1.3282,-0.4504,-0.6565,-0.3735,-7.039,-7.0054,-3.1756,1.0382,0.4351
56457.841,0.5073,7.949,5.9677,0.14,-1.12,1.12,0.8088,-9.6814,-0.8614,-2.03,-1.96,-1.19,-0.0335,-0.0982,8.6143,-1.5649,-0.7557,-0.6489,-0.4094,-6.9767,-6.9671,-3.3206,0.8931,0.3664
56580.415,0.4881,8.016,5.9821,1.12,-1.4,1.12,0.8375,-9.667,-1.3304,2.8,-1.54,-0.98,0.0646,-0.1508,8.5665,-1.5267,-0.7634,-0.6641,-0.3567,-7.1012,-6.9743,-3.1145,1.1069,0.3359
56668.027,0.5073,7.9442,5.9868,0.35,-1.19,1.12,0.8136,-9.6814,-0.8853,0.77,-1.89,-1.19,0.0742,-0.1293,8.5425,-1.3817,-0.3588,-0.6031,-0.3855,-7.0725,-7.0078,-3.3359,1.0076,0.4656
56758.504,0.4738,7.9442,6.0108,0.63,-1.05,1.05,0.8471,-9.7292,-1.3352,2.66,-1.54,-0.98,-0.0215,-0.1604,8.5066,-1.4962,-0.4198,-0.4962,-0.3903,-7.0198,-6.9935,-3.229,1.0534,0.4046
56848.222,0.5121,7.9825,5.9916,0.42,-1.19,1.26,0.8136,-9.6574,-1.0289,-2.73,-2.1,-1.19,0.0311,-0.0958,8.5401,-1.3206,-0.4809,-0.6641,-0.3543,-7.0246,-6.9887,-2.916,1.1603,0.4046
56938.308,0.469,7.9298,5.9868,-0.21,-1.12,0.98,0.8471,-9.7005,-1.2108,5.81,-1.12,-0.91,-0.0215,-0.1532,8.5329,-1.1985,-0.7023,-0.6565,-0.3711,-7.0318,-7.0629,-3.1908,0.9924,0.3893
57030.366,0.4977,7.9681,6.0012,1.4,-1.33,1.05,0.8279,-9.7053,-1.005,-3.64,-2.24,-1.19,-0.012,-0.1293,8.4827,-1.4275,-0.542,-0.6718,-0.4262,-7.0844,-7.0126,-3.0305,1.0916,0.3817
57118.7,0.4834,7.9585,5.9677,0.28,-1.19,1.12,0.8279,-9.6383,-1.1103,4.34,-1.33,-0.98,0.0694,-0.1844,8.6263,-1.1908,-0.4809,-0.8168,-0.4094,-7.0318,-7.0198,-3.313,1.1603,0.313
57208.238,0.5121,7.9777,5.9964,0.84,-1.19,0.98,0.8566,-9.7005,-1.3687,-3.43,-1.75,-1.19,0.0431,-0.1437,8.4563,-1.4656,-0.4809,-0.5191,-0.3663,-7.0222,-7.0366,-3.3282,1.2061,0.3588
57332.602,0.5025,7.9537,5.9773,0.28,-0.98,1.33,0.8327,-9.6479,-0.9045,4.41,-1.33,-1.05,0.0551,-0.1939,8.5497,-1.3588,-0.4733,-0.5878,-0.3879,-7.0342,-6.9049,-2.9695,1.1756,0.3664
57418.609,0.5025,7.9729,5.9868,1.12,-1.47,1.12,0.8375,-9.6718,-1.0337,2.24,-1.54,-1.12,0.0239,-0.1101,8.5425,-1.3435,-0.7023,-0.4198,-0.4046,-7.0485,-7.003,-3.2366,1.0076,0.4275
57508.456,0.5216,7.949,5.9725,0.07,-1.19,1.12,0.8088,-9.667,-1.0002,1.19,-1.82,-1.19,0.0694,-0.1365,8.6191,-1.374,-0.687,-0.3664,-0.3998,-7.003,-7.027,-3.1298,1.1145,0.3588
57600.289,0.4881,8.0112,5.9868,0.91,-1.33,1.05,0.8518,-9.7531,-0.9715,-10.36,-3.22,-1.12,0.0862,-0.1628,8.5545,-1.3435,-0.3664,-0.4427,-0.3807,-6.9911,-7.0581,-3.2519,1.1527,0.3282
57688.02,0.5121,7.925,5.9773,0.28,-1.19,1.19,0.8136,-9.6574,-1.0576,5.53,-1.47,-0.98,0.0096,-0.1077,8.4515,-1.5038,-0.3435,-0.5344,-0.316,-7.0868,-6.9815,-3.0687,1.2061,0.4962
57778.501,0.4881,7.9442,5.9916,0.56,-1.4,0.91,0.8471,-9.6957,-1.3735,0.42,-1.54,-1.05,0.0766,-0.0814,8.5832,-1.4351,-0.4351,-0.5038,-0.3998,-6.9983,-6.9743,-2.6031,1.229,0.3893
57869.351,0.5264,7.9777,5.9821,0.77,-1.19,1.12,0.804,-9.6909,-0.8566,-2.73,-2.17,-1.26,0.0048,-0.17,8.5425,-1.2901,-0.1985,-0.6794,-0.3615,-7.0294,-7.0605,-3.4504,1.0611,0.313
57987.987,0.4977,7.9825,5.9916,0.84,-1.4,1.05,0.8566,-9.6957,-1.3161,6.51,-1.05,-0.91,0.0096,-0.1413,8.6503,-1.4046,-0.5191,-0.542,-0.3879,-7.0437,-6.9743,-3.3664,1.1679,0.3664
58077.963,0.4881,7.9633,6.0012,0.63,-1.26,1.19,0.8183,-9.7005,-1.2012,-2.87,-2.17,-1.12,0.0215,-0.1173,8.6048,-1.2901,-0.5191,-0.5115,-0.4357,-7.0126,-7.039,-2.916,1.1679,0.3282
58168.34,0.4546,7.949,5.9629,0.21,-1.19,1.12,0.8327,-9.6718,-1.206,3.78,-1.33,-1.05,0.0215,-0.1245,8.5186,-1.4809,-0.7405,-0.3359,-0.3735,-7.0461,-6.8738,-2.8855,1.0992,0.3893
58348.626,0.4738,7.9442,5.9629,0.0,-1.19,1.19,0.8279,-9.667,-1.0959,6.51,-1.33,-0.98,0.1125,-0.1293,8.509,-1.5267,-0.3969,-0.5038,-0.3807,-7.0701,-6.9815,-3.374,1.2061,0.4962
58531.876,0.4834,7.9585,5.9821,0.28,-1.12,1.26,0.8375,-9.6335,-0.6891,2.8,-1.54,-0.98,0.0646,-0.1915,8.5856,-1.2672,-0.5038,-0.4427,-0.3256,-7.0222,-6.9839,-3.313,1.1756,0.3435
58618.024,0.4834,7.9633,5.9821,0.77,-1.26,1.05,0.8614,-9.7149,-1.5601,1.61,-1.61,-1.05,0.0958,-0.1197,8.4874,-1.2672,-0.6336,-0.6718,-0.3687,-7.039,-6.9599,-3.313,1.2595,0.3817
58740.532,0.4977,7.9537,5.9821,0.21,-1.19,1.19,0.8136,-9.667,-0.737,-2.1,-2.03,-1.19,-0.0287,-0.1365,8.5425,-1.5649,-0.6641,-0.5344,-0.3783,-7.0126,-6.9168,-3.229,1.0534,0.374
58830.112,0.5025,8.0064,5.9964,1.26,-1.47,1.05,0.8662,-9.6909,-1.4692,1.89,-1.33,-0.91,0.0503,-0.079,8.5688,-1.3359,-0.7176,-0.4885,-0.4142,-7.0366,-6.9216,-3.7939,0.9847,0.542
58921.969,0.5121,7.949,6.006,-0.14,-1.12,1.19,0.7992,-9.6526,-0.9236,-0.63,-2.03,-1.19,0.0718,-0.1197,8.4707,-1.2748,-0.5191,-0.542,-0.3759,-7.0557,-6.9456,-3.1908,0.9771,0.4427
59008.336,0.469,7.9729,5.9868,0.21,-1.33,0.91,0.8614,-9.7101,-1.4453,5.04,-1.26,-0.98,-0.0646,-0.1365,8.5808,-1.4046,-0.8473,-0.4885,-0.3831,-6.9767,-6.9719,-3.2214,1.1679,0.2366
59097.965,0.5216,7.9585,5.9725,0.84,-1.26,1.12,0.7848,-9.6718,-0.8853,-4.83,-2.31,-1.26,0.0838,-0.2011,8.5665,-1.3588,-0.4275,-0.6565,-0.3591,-7.0509,-6.9695,-3.0305,1.0458,0.2672
59189.15,0.5073,7.9825,5.9438,0.42,-1.26,1.12,0.8853,-9.6957,-0.3206,8.19,-0.84,-0.91,0.0527,-0.0694,8.5018,-1.4885,-0.374,-0.4427,-0.4094,-7.0437,-7.0749,-3.2366,1.1527,0.4122
59278.268,0.4881,7.9681,6.0012,0.49,-1.26,1.19,0.8231,-9.6861,-0.9141,-4.2,-2.31,-1.19,0.0168,-0.1365,8.5569,-1.3969,-0.7634,-0.374,-0.4812,-7.0413,-6.9288,-2.7176,0.9389,0.2824
59399.68,0.4977,7.9825,6.0012,0.91,-1.33,1.05,0.8136,-9.6814,-1.3017,4.69,-1.26,-1.05,-0.012,-0.1604,8.521,-1.3817,-0.6412,-0.542,-0.3879,-7.0342,-7.0509,-3.1603,1.0458,0.4351
59490.439,0.5073,8.0016,5.9821,0.77,-1.12,1.26,0.8183,-9.7005,-1.1486,-2.94,-2.03,-1.12,-0.0096,-0.1077,8.5258,-1.3053,-0.5573,-0.3893,-0.4334,-7.0318,-7.0533,-3.229,1.2672,0.3817
59578.173,0.5073,7.9346,5.9821,-0.07,-1.12,1.05,0.8471,-9.6909,-0.938,2.8,-1.54,-1.12,0.0407,-0.1221,8.5497,-1.2366,-0.6031,-0.6565,-0.419,-7.082,-6.9384,-3.2977,1.229,0.3893
59668.766,0.5025,8.0064,5.9916,1.33,-1.47,1.12,0.8662,-9.7101,-1.3065,-0.84,-1.96,-1.05,0.0048,-0.1772,8.4994,-1.3969,-0.6641,-0.6107,-0.3807,-7.0294,-6.9408,-3.1908,1.1527,0.3893
59758.47,0.4977,7.9681,5.9677,0.21,-1.19,1.26,0.8136,-9.6479,-1.0241,1.47,-1.61,-1.12,0.0431,-0.1269,8.5665,-1.2748,-0.5496,-0.5878,-0.3352,-7.0222,-6.8331,-3.2519,1.084,0.3359
59851.38,0.4929,7.9825,5.9916,0.77,-1.33,0.91,0.8806,-9.734,-1.5266,3.78,-1.47,-1.05,0.0168,-0.1269,8.4036,-1.3359,-0.6565,-0.5496,-0.316,-7.0054,-6.924,-3.7863,1.084,0.6794
59940.325,0.4786,7.949,5.9629,0.49,-1.19,1.19,0.804,-9.6861,-0.7992,-0.35,-2.03,-1.26,0.0431,-0.1317,8.521,-1.4427,-0.4733,-0.6565,-0.3567,-7.039,-6.9576,-3.5267,1.229,0.4656
60028.461,0.4834,7.9777,5.9868,0.98,-1.33,1.12,0.8518,-9.6909,-1.3304,3.85,-1.4,-0.98,0.0335,-0.0575,8.5377,-1.3511,-0.687,-0.6107,-0.4022,-7.0126,-6.9408,-3.4733,1.0992,0.4733
60149.745,0.5168,7.9537,5.9725,0.42,-1.19,1.05,0.7801,-9.6909,-0.9188,-2.31,-2.03,-1.19,-0.0144,-0.1604,8.5186,-1.4122,-0.4122,-0.5038,-0.4334,-7.0485,-7.0054,-3.0916,1.1221,0.4275
60238.532,0.4881,7.9729,5.9821,0.98,-1.33,1.05,0.8471,-9.7005,-1.2538,4.41,-1.33,-0.98,0.0527,-0.1915,8.5736,-1.3664,-0.6947,-0.6718,-0.3855,-7.0653,-6.948,-3.4351,1.1221,0.3664
60329.91,0.4977,7.9633,5.9773,0.42,-1.19,1.19,0.7992,-9.6766,-0.9428,-2.17,-2.03,-1.12,0.0215,-0.1293,8.5329,-1.3511,-0.3282,-0.3969,-0.3735,-7.0174,-6.9192,-3.3053,1.1298,0.3206
60419.547,0.4977,7.9442,5.9725,0.21,-1.19,1.05,0.8518,-9.6861,-1.3783,6.02,-1.19,-1.05,0.0718,-0.1532,8.5473,-1.1985,-0.6183,-0.5649,-0.4166,-7.0509,-6.9576,-3.3817,1.0382,0.458
60510.14,0.4834,7.9633,6.0012,1.05,-1.4,1.05,0.8327,-9.6861,-1.0146,-3.5,-2.1,-1.19,0.079,-0.146,8.509,-1.2443,-0.3359,-0.4962,-0.3543,-7.0485,-6.9743,-2.7099,1.1221,0.1832
60598.677,0.4786,7.9729,5.9486,0.35,-1.19,1.19,0.8518,-9.6239,-0.9619,6.23,-1.12,-1.05,0.0215,-0.1556,8.4587,-1.4275,-0.6031,-0.6336,-0.3256,-7.0006,-7.0318,-3.2595,1.1221,0.2595
60688.008,0.5121,7.9825,5.9725,0.7,-1.26,1.05,0.8375,-9.7005,-1.4979,-1.96,-2.03,-1.05,0.067,-0.1221,8.5688,-1.2748,-0.5267,-0.4122,-0.3831,-7.0533,-6.9049,-3.2061,1.0153,0.5954
60808.056,0.4786,7.9059,5.9773,-0.07,-1.12,1.05,0.8183,-9.6479,-0.8758,1.61,-1.54,-1.05,0.0599,-0.1748,8.6167,-1.4351,-0.4962,-0.6718,-0.3687,-7.039,-7.0198,-3.0611,1.1908,0.4122
60898.76,0.5025,7.992,5.9916,1.33,-1.33,1.12,0.8375,-9.7149,-1.3591,0.7,-1.75,-1.05,0.0287,-0.1556,8.5305,-1.4275,-0.4198,-0.5802,-0.3663,-7.0557,-6.9599,-3.1756,1.1221,0.4351
60988.254,0.4977,7.9585,5.9725,0.07,-1.12,1.19,0.8136,-9.6622,-0.8279,-14.77,-1.82,-1.12,0.0215,-0.1628,8.5042,-1.4427,-0.6641,-0.2748,-0.316,-7.0006,-6.9408,-3.2061,1.1145,0.4122
61078.162,0.4929,7.9825,6.0108,0.98,-1.4,0.77,0.871,-9.7484,-1.4644,0.28,-1.33,-0.98,0.012,-0.1125,8.5258,-1.4046,-0.7023,-0.6183,-0.3496,-7.039,-6.9983,-3.3053,1.1679,0.4046
61168.072,0.5073,7.9298,5.9868,0.42,-1.12,1.19,0.7992,-9.667,-0.7466,-1.54,-1.96,-1.26,0.0575,-0.1365,8.5066,-1.3359,-0.6336,-0.6794,-0.3998,-6.9791,-6.9432,-3.4733,1.2214,0.4275
61259.223,0.4881,7.9681,5.9821,0.49,-1.26,0.98,0.8758,-9.7244,-1.5458,6.3,-1.05,-0.91,-0.0215,-0.17,8.5329,-1.2595,-0.5954,-0.1832,-0.3208,-7.0413,-6.9671,-3.4504,1.1298,0.2519
61351.548,0.5121,7.9394,5.9868,0.49,-1.26,1.12,0.8088,-9.6718,-0.8518,-5.25,-2.38,-1.26,0.0718,-0.1197,8.5353,-1.3435,-0.7099,-0.5496,-0.3519,-7.0725,-6.9647,-3.1298,1.0076,0.4351
61439.492,0.5025,7.9729,6.0012,1.05,-1.26,1.05,0.8566,-9.6718,-1.4883,7.35,-0.91,-0.91,-0.0694,-0.1125,8.6263,-1.3588,-0.4198,-0.4809,-0.3232,-7.0222,-6.9791,-3.3511,1.229,0.4656
61557.861,0.4977,7.9633,5.9677,0.07,-1.33,1.05,0.8183,-9.7005,-0.9667,-3.08,-2.17,-1.12,0.0718,-0.1652,8.5162,-1.4504,-0.5344,-0.5191,-0.3663,-7.0557,-6.9887,-3.1832,0.9771,0.3511
61679.231,0.4834,7.9729,6.0012,0.28,-1.26,0.7,0.8423,-9.7914,-1.3065,3.92,-1.4,-0.98,0.0646,-0.1149,8.5258,-1.2977,-0.6641,-0.5573,-0.3831,-7.0006,-7.0006,-3.2214,1.1679,0.3511
61738.152,0.5073,7.9537,5.9964,1.12,-1.33,0.98,0.8088,-9.7005,-0.9858,-4.62,-2.31,-1.26,0.0694,-0.182,8.4659,-1.2061,-0.4275,-0.4427,-0.316,-6.9552,-7.0485,-3.2443,1.084,0.3817
61830.24,0.469,7.9442,5.9773,0.21,-1.19,1.12,0.8327,-9.667,-1.0098,5.74,-1.19,-0.98,0.0958,-0.1269,8.5569,-1.374,-0.7328,-0.5725,-0.3615,-7.0605,-7.0437,-3.2137,1.0992,0.5191
61919.667,0.4977,7.9777,5.9964,1.05,-1.33,1.05,0.8375,-9.7196,-1.3831,-2.52,-2.1,-1.12,0.0144,-0.1796,8.5497,-1.5038,-0.4504,-0.3817,-0.3855,-7.0461,-7.0054,-3.3359,1.4351,0.374
62097.959,0.5025,7.9633,5.9868,0.56,-1.26,1.05,0.8423,-9.7196,-1.3831,-0.84,-1.68,-1.12,0.0144,-0.1652,8.509,-1.3053,-0.5496,-0.5115,-3.0287,-6.9336,-7.2927,-17.7481,38.5954,20.0992
62218.039,0.4977,7.9346,5.9629,0.28,-1.19,1.26,0.804,-9.6814,-0.8614,-1.4,-2.17,-1.19,0.1053,-0.1556,8.4324,-1.313,-0.6412,-0.4504,-0.3879,-7.094,-6.8761,-3.4656,11.8397,-17.4427
62308.009,0.4834,7.992,5.9964,1.26,-1.4,1.12,0.8471,-9.6766,-1.3783,4.62,-1.19,-0.98,-0.0024,-0.1317,8.4922,-1.3969,-0.4046,-0.3893,0.103,-7.106,-7.0413,-3.0076,0.1756,0.6565
62398.019,0.4977,7.9537,5.9725,-0.07,-1.19,1.19,0.8183,-9.6814,-0.9045,-2.1,-2.03,-1.19,-0.0048,-0.1221,8.5641,-1.2977,-0.4198,-0.4962,0.2682,-7.2425,-6.7109,-0.2519,-11.3435,21.5954
62487.951,0.4738,7.9681,5.9916,0.84,-1.12,0.98,0.871,-9.7005,-1.3448,3.85,-1.4,-1.05,0.1077,-0.1341,8.5904,-1.4122,-0.5038,-0.6412,-0.0144,-7.0653,-6.9647,-4.3664,0.374,0.7863
62578.023,0.5216,7.9442,5.9821,0.56,-1.4,1.19,0.8136,-9.6861,-0.7657,-5.74,-2.45,-1.26,0.012,-0.1796,8.521,-1.3435,-0.5725,-0.5496,-0.3926,-7.0318,-6.9791,-5.6718,-7.5115,10.0229
62667.902,0.4834,7.949,5.9821,0.21,-1.19,1.12,0.8375,-9.6957,-1.3448,6.3,-1.05,-0.98,0.067,-0.0838,8.5449,-1.3053,-0.5038,-0.6412,-0.3304,-7.0533,-6.9719,-4.6565,1.3359,0.6718
62757.886,0.5073,7.9585,5.9821,1.05,-1.26,1.12,0.7848,-9.7005,-1.1342,-4.83,-2.24,-1.19,0.0431,-0.1604,8.497,-1.3817,-0.7328,-0.6641,-0.4046,-7.0557,-7.015,-3.1298,0.9542,0.145
62848.159,0.469,7.9681,5.9533,0.07,-1.19,1.12,0.8231,-9.7244,-1.4309,-2.8,-2.17,-1.26,0.0239,-0.1628,8.6503,-1.2977,-0.6794,-0.6412,-0.4262,-7.0557,-7.0366,-3.1832,1.0916,0.2672
62968.141,0.5025,7.9585,5.9821,0.42,-1.26,1.12,0.8183,-9.6479,-1.0433,3.08,-1.33,-0.98,0.0622,-0.1293,8.509,-1.3435,-0.4962,-0.5191,-0.4501,-6.9983,-7.0174,-3.3511,1.2519,0.313
63058.167,0.4881,7.925,6.0012,0.28,-1.12,1.19,0.8471,-9.7101,-1.3639,0.07,-1.68,-1.12,0.0144,-0.0694,8.5641,-1.2672,-0.5191,-0.5344,-0.4142,-6.9887,-7.0102,-3.2214,1.0305,0.3359
63147.938,0.5073,7.9872,6.0251,1.54,-1.47,0.91,0.8183,-9.6383,-0.8183,4.55,-1.89,-1.12,0.0,-0.1317,8.6024,-1.4427,-0.4733,-0.4962,-0.3711,-7.0533,-7.0054,-3.2443,1.0916,0.4504
63238.289,0.4881,7.9442,5.9677,-0.07,-1.12,1.26,0.8279,-9.7244,-1.5075,-1.05,-1.96,-0.98,0.0144,-0.1317,8.5928,-1.5267,-0.626,-0.3511,-0.3926,-7.0174,-6.9935,-2.4809,1.1221,0.1069
63418.015,0.4977,7.949,5.9677,0.14,-1.12,1.12,0.804,-9.6526,-0.6652,-1.47,-2.03,-1.19,0.0455,-0.182,8.5425,-1.2214,-0.5344,-0.6565,-0.3735,-7.0342,-7.0318,-3.2214,1.145,0.3588
63507.908,0.5025,7.9777,6.0012,0.91,-1.26,1.05,0.8518,-9.7196,-1.5936,3.57,-1.4,-1.05,-0.0694,-0.0886,8.4467,-1.5191,-0.5802,-0.6565,-0.4477,-7.0485,-7.0102,-3.229,1.0916,0.2901
63628.951,0.5025,7.9202,5.9964,0.42,-0.98,1.12,0.8088,-9.6909,-0.7848,-2.8,-2.17,-1.12,0.0551,-0.1604,8.4587,-1.4198,-0.6718,-0.6336,-0.3615,-7.003,-7.0318,-3.3282,1.0382,0.4198
63718.044,0.4834,7.9681,6.006,0.84,-1.47,0.91,0.8423,-9.6957,-1.3639,3.29,-1.47,-1.05,0.012,-0.1125,8.5736,-1.4504,-0.4275,-0.5115,-0.3903,-6.9911,-7.0557,-3.1527,1.2748,0.3817
63808.699,0.4881,7.9442,5.9725,0.56,-1.26,1.12,0.8136,-9.6861,-0.9954,-2.94,-2.17,-1.19,0.0,-0.1197,8.497,-1.5725,-0.3511,-0.6565,-0.431,-7.0078,-6.9576,-3.374,1.084,0.2748
63900.007,0.4786,7.9585,5.9677,0.35,-1.26,0.98,0.8566,-9.6861,-1.2108,4.55,-1.33,-1.05,-0.0239,-0.1269,8.521,-1.4198,-0.6947,-0.4962,-0.34,-7.039,-7.015,-3.3053,1.0153,0.5496
63989.89,0.5168,8.0016,6.0012,1.05,-1.33,1.05,0.8279,-9.6718,-1.1533,-3.29,-2.1,-1.12,0.0742,-0.1317,8.5521,-1.3893,-0.5191,-0.6183,-0.3591,-7.0222,-6.9073,-3.2061,1.1298,0.3282
64078.562,0.4738,7.9681,5.9581,0.21,-1.26,1.12,0.8566,-9.6622,-1.0002,5.39,-1.19,-0.98,0.1101,-0.1604,8.509,-1.374,-0.4809,-0.6031,-0.3472,-6.9743,-6.9791,-3.2519,1.084,0.3282
64169.973,0.4977,7.9442,6.0156,0.56,-1.19,1.05,0.8423,-9.734,-1.2443,-1.47,-2.03,-1.19,-0.012,-0.1413,8.5281,-1.3511,-0.6107,-0.5038,-0.3663,-7.0509,-6.9743,-3.2595,1.1374,0.4427
64259.261,0.4738,7.9537,5.9916,0.07,-1.19,1.19,0.8279,-9.667,-0.8997,-14.91,-1.68,-1.05,0.0622,-0.2059,8.4707,-1.4427,-0.6718,-0.2824,-0.419,-6.9791,-7.0773,-2.9618,1.1908,0.5496
64378.384,0.5168,7.9537,6.0251,1.12,-1.4,1.05,0.8662,-9.7053,-1.4213,-0.56,-1.68,-1.12,0.1006,-0.1053,8.4922,-1.313,-0.6031,-0.5954,-0.3831,-6.9887,-6.9935,-3.2748,1.1679,0.313
64469.036,0.4977,7.9202,5.9821,-0.07,-1.12,0.98,0.8231,-9.6574,-0.8327,0.84,-1.75,-1.12,0.0311,-0.1532,8.4467,-1.4656,-0.5649,-0.2977,-0.4597,-7.0294,-6.9432,-3.3588,1.0458,0.3282
64591.062,0.4881,7.992,5.9821,1.33,-1.47,0.98,0.871,-9.7101,-1.5649,2.24,-1.54,-1.05,0.0,-0.146,8.5641,-1.3435,-0.542,-0.5115,-0.3663,-7.039,-7.0246,-3.2672,1.1221,0.4809
64648.674,0.4977,7.9202,5.9486,-0.21,-1.19,1.19,0.8183,-9.6335,-0.7513,-1.54,-2.03,-1.12,0.0335,-0.1413,8.4707,-1.5573,-0.6794,-0.6565,-0.407,-7.0677,-6.9528,-3.1908,1.1603,0.3817
64740.064,0.4786,7.9585,5.9964,0.49,-1.33,0.98,0.8758,-9.7196,-1.6319,5.46,-1.19,-0.98,-0.0646,-0.1413,8.5497,-1.2366,-0.5191,-0.5878,-0.3998,-6.9743,-6.9121,-3.1603,1.1298,0.3817
64831.244,0.5264,7.9681,5.9868,0.7,-1.19,1.12,0.7944,-9.6479,-0.6987,-1.68,-2.31,-1.19,0.0646,-0.1413,8.6119,-1.4046,-0.6718,-0.6947,-0.3567,-7.0078,-7.1587,-2.3969,1.1985,0.1985
64918.123,0.4881,7.9777,5.9773,-0.35,-1.19,1.05,0.8279,-9.6957,-1.4118,5.04,-1.12,-0.98,0.0431,-0.1532,8.6119,-1.3282,-0.4275,-0.5344,-0.4238,-7.0533,-6.9432,-3.0153,1.2519,0.2595
65039.366,0.4929,7.9346,6.0012,0.49,-1.26,1.05,0.8423,-9.7101,-1.1629,-0.91,-1.96,-1.12,0.1245,-0.1604,8.5497,-1.3435,-0.5038,-0.6489,-0.3855,-7.0342,-6.9671,-3.3282,1.084,0.3664
65131.372,0.4738,7.9298,5.9725,0.42,-1.12,1.05,0.8758,-9.6718,-1.2156,5.6,-2.59,-1.33,0.0263,-0.1365,8.6167,-1.3206,-0.3893,-0.2901,-0.4166,-7.0222,-7.0485,-2.9618,1.2672,0.2824
65224.153,0.5216,7.9777,5.9964,0.56,-1.26,1.19,0.8327,-9.7244,-1.1198,-3.85,-2.1,-1.26,-0.0215,-0.0718,8.4372,-1.4275,-0.542,-0.6565,-0.3783,-7.0533,-7.0102,-2.8015,1.1985,0.5344
65308.515,0.4929,7.949,5.9773,0.28,-1.19,1.19,0.8471,-9.6383,-1.3831,6.86,-1.05,-0.98,0.0718,-0.0934,8.5305,-1.3664,-0.3969,-0.6107,-0.3783,-6.9863,-6.9312,-3.3359,1.0992,0.2901
65399.946,0.5025,8.0064,6.0251,1.19,-1.4,1.12,0.8471,-9.7053,-1.0959,-3.71,-2.03,-1.19,0.0263,-0.1365,8.5162,-1.4122,-0.3435,-0.6641,-0.3376,-7.0557,-6.9695,-3.1374,1.0382,0.1679
65489.816,0.4977,7.882,5.9581,-0.21,-1.05,1.26,0.8279,-9.6144,-1.0385,5.6,-1.47,-1.26,0.0096,-0.2179,8.5425,-1.313,-0.3969,-0.6641,-0.3926,-7.0749,-7.0366,-3.2672,1.1221,0.4122
65578.746,0.4881,7.9633,6.0299,0.98,-1.33,0.98,0.8471,-9.7005,-1.2203,-2.31,-2.31,-1.05,0.0503,-0.1197,8.5018,-1.2366,-0.6947,-0.3435,-0.3879,-7.0246,-7.0653,-3.229,1.145,0.3435
65668.077,0.4977,7.949,5.9773,0.7,-1.12,1.19,0.8231,-9.6383,-1.0241,1.61,-1.61,-1.05,0.067,-0.1724,8.5138,-1.3206,-0.5115,-0.6336,-0.4166,-7.0246,-7.0318,-3.2366,1.0611,0.3893
65789.605,0.5121,7.9968,6.006,0.84,-1.33,1.05,0.8614,-9.7388,-1.4166,2.1,-1.61,-0.98,-0.0335,-0.2107,8.5425,-1.1756,-0.5725,-0.7328,-0.4477,-6.9839,-7.0054,-3.2824,1.0458,0.3588
65881.834,0.6269,7.7575,6.0443,2.38,-1.4,1.89,0.7753,-9.9111,1.2873,-33.67,-5.53,-1.75,0.2705,-0.1269,8.272,-0.5573,2.3817,-0.542,-0.4046,-7.0294,-6.9432,-3.4962,1.1679,0.4504
65968.948,0.4977,7.9729,5.9964,-0.98,-0.91,1.61,0.9045,-9.734,-2.2588,-3.78,-0.91,-0.98,0.0,-0.146,8.5234,-1.3588,-0.6565,-0.2672,-0.3376,-7.0006,-6.9073,-4.2061,1.1221,0.5802
66060.619,0.5073,7.949,5.9533,0.77,-1.26,1.12,0.8327,-9.667,-0.7992,2.73,-1.96,-1.19,0.0646,-0.2035,8.5258,-1.2595,-0.771,-0.6107,-0.431,-6.8666,-6.857,-3.9542,1.1908,0.5038
66150.18,0.5073,7.9537,5.9821,-0.84,-1.19,0.77,0.8279,-9.6814,-1.3017,1.33,-1.75,-1.05,0.0192,-0.1389,8.4994,-1.4427,-0.3206,-0.5038,-0.4238,-7.0174,-6.924,-3.0382,1.2977,0.4351
66238.42,0.4977,7.9394,5.9868,1.68,-1.4,1.33,0.8183,-9.6861,-1.1103,0.28,-1.89,-1.05,0.0072,-0.1508,8.5904,-1.3664,-0.3511,-0.4504,-0.3615,-7.0222,-6.9025,-3.3359,1.1221,0.4504
