timestamp,right_leg_Accel_X,right_leg_Accel_Y,right_leg_Accel_Z,right_leg_Gyro_X,right_leg_Gyro_Y,right_leg_Gyro_Z,left_leg_Accel_X,left_leg_Accel_Y,left_leg_Accel_Z,left_leg_Gyro_X,left_leg_Gyro_Y,left_leg_Gyro_Z
61.424,7.6854,-0.3017,5.5162,-1.5115,-0.3969,-0.4504,10.3693,-0.3519,0.2729,-3.2366,1.3053,0.2977
151.519,7.6064,-0.3974,5.4636,-1.3359,-0.7786,-0.687,10.2687,-0.3926,0.237,-3.4122,1.1069,0.3893
241.408,7.58,-0.249,5.5905,-1.4275,-0.4656,-0.5344,10.3094,-0.3256,0.2179,-3.3664,1.3359,0.3969
331.97,7.6255,-0.3424,5.6096,-1.5115,-0.6565,-0.5878,10.2807,-0.34,0.1556,-3.3969,1.0611,0.4351
421.479,7.616,-0.2777,5.6288,-1.3435,-0.5267,-0.3893,10.2615,-0.2849,0.2682,-3.2443,1.0992,0.4962
511.748,7.5896,-0.2801,5.5617,-1.5344,-0.687,-0.6565,10.3286,-0.3591,0.2131,-3.4733,1.1908,0.6565
601.322,7.604,-0.3424,5.5665,-1.5191,-0.6107,-0.7328,10.2999,-0.3807,0.2251,-3.2366,1.6489,0.313
749.774,7.6591,-0.2682,5.5641,-1.2519,-0.5344,-0.4046,10.3286,-0.3041,0.1508,-3.458,1.1832,0.2519
840.67,7.5944,-0.3065,5.521,-1.3969,-0.6183,-0.4885,10.24,-0.3424,0.2394,-3.3282,0.7405,0.374
870.674,7.5992,-0.2418,5.5306,-1.2519,-0.6031,-0.5802,10.343,-0.3519,0.1915,-3.2595,1.0534,0.3206
991.622,7.6016,-0.34,5.5138,-1.4122,-0.5496,-0.6412,10.2639,-0.3591,0.2274,-3.1603,1.2748,0.3817
1081.494,7.6112,-0.2825,5.6048,-1.2214,-0.7023,-0.6183,10.2927,-0.34,0.1652,-3.2824,1.2137,0.4427
1171.525,7.5537,-0.328,5.5258,-1.5267,-0.4656,-0.4733,10.3238,-0.3903,0.0862,-3.2901,1.145,0.6107
1261.206,7.6327,-0.2586,5.5593,-1.3969,-0.6336,-0.5115,10.2568,-0.3184,0.2011,-3.1527,1.0229,0.1985
1351.271,7.6471,-0.3567,5.5809,-1.4198,-0.5115,-0.6794,10.3453,-0.3519,0.261,-3.2519,0.8473,0.2366
1440.157,7.6279,-0.3017,5.4779,-1.3969,-0.5115,-0.6107,10.3382,-0.3687,0.1293,-3.3817,1.2214,0.4504
1530.827,7.616,-0.2993,5.5617,-1.3511,-0.6183,-0.4504,10.3286,-0.3112,0.1604,-3.1603,1.084,0.5191
1621.127,7.6279,-0.3472,5.5522,-1.2595,-0.6031,-0.5344,10.3022,-0.3591,0.0886,-3.5038,1.1298,0.2672
1711.283,7.5872,-0.2634,5.5641,-1.4275,-0.6641,-0.4656,10.2352,-0.3448,0.1532,-3.4504,1.0916,0.3282
1800.964,7.6495,-0.3448,5.5258,-1.1908,-0.542,-0.5038,10.3477,-0.3687,0.1963,-3.313,1.1679,0.4733
1890.821,7.6998,-0.2466,5.6024,-1.4962,-0.6107,-0.5038,10.4052,-0.3855,0.1724,-3.3359,0.9313,0.3435
1979.525,7.7045,-0.4094,5.4947,-1.3664,-0.5573,-0.4962,10.2879,-0.3328,0.17,-3.0992,1.0229,0.374
2069.145,7.6351,-0.2442,5.5976,-1.2748,-0.5115,-0.6183,10.2783,-0.3136,0.2298,-3.3893,0.855,0.2672
2157.894,7.6471,-0.4046,5.624,-1.4733,-0.5802,-0.542,10.3022,-0.3472,0.1628,-3.1985,1.4351,0.4122
2279.365,7.6519,-0.2442,5.5067,-1.2824,-0.4427,-0.4656,10.3094,-0.3208,0.1101,-3.2672,1.3664,0.5496
2369.023,7.6184,-0.316,5.4851,-1.4427,-0.6794,-0.5802,10.2927,-0.3352,0.1269,-3.2137,1.2519,0.374
2459.003,7.5872,-0.2897,5.4803,-1.374,-0.542,-0.5878,10.3286,-0.328,0.2203,-3.5115,1.1221,0.3435
2551.506,7.6447,-0.3089,5.4684,-1.4656,-0.5496,-0.4962,10.3118,-0.3926,0.2322,-3.3969,1.0534,0.2519
2645.905,7.6016,-0.3328,5.624,-1.2977,-0.6183,-0.4504,10.2879,-0.3735,0.249,-3.374,1.0763,0.542
2730.278,7.5753,-0.3041,5.5833,-1.3817,-0.6489,-0.3664,10.2783,-0.34,0.2155,-3.2672,1.145,0.4656
2822.596,7.5441,-0.2825,5.533,-1.4656,-0.6412,-0.5267,10.3406,-0.3089,0.1628,-3.084,1.2137,0.4656
2909.883,7.6543,-0.3543,5.5737,-1.3817,-0.6107,-0.4809,10.3358,-0.3831,0.182,-3.3206,1.5725,0.3053
3000.847,7.6088,-0.3304,5.5402,-1.4656,-0.4885,-0.5725,10.2759,-0.3735,0.2035,-3.4427,0.9466,0.4046
3098.752,7.5705,-0.3184,5.6072,-1.3664,-0.7634,-0.3511,10.3717,-0.3591,0.237,-3.2061,0.9542,0.3893
3178.917,7.5944,-0.2753,5.5402,-1.3053,-0.4656,-0.5725,10.3453,-0.3496,0.2873,-3.0229,1.1679,0.5496
3268.797,7.5824,-0.3208,5.5641,-1.3893,-0.5267,-0.3435,10.3477,-0.3543,0.1604,-3.2519,1.4122,0.4809
3357.755,7.6136,-0.2322,5.5378,-1.229,-0.3664,-0.4656,10.2975,-0.3472,0.2801,-3.1679,1.3511,0.4962
3478.761,7.6495,-0.3328,5.5019,-1.4275,-0.6489,-0.2672,10.2999,-0.2825,0.2777,-3.1069,1.2672,0.3969
3570.33,7.6136,-0.261,5.5091,-1.4275,-0.5191,-0.4198,10.3956,-0.3472,0.1963,-3.0916,1.0687,0.3053
3660.503,7.6255,-0.2346,5.6048,-1.3053,-0.4809,-0.5802,10.3094,-0.3424,0.2083,-3.3282,1.0534,0.4885
3750.09,7.6255,-0.328,5.4971,-1.4275,-0.5573,-0.6412,10.2711,-0.2777,0.2538,-3.2366,1.1374,0.4275
3840.8,7.592,-0.3041,5.6192,-1.4504,-0.6947,-0.6794,10.2951,-0.3208,0.1652,-3.0305,1.0687,0.3511
3930.849,7.6184,-0.2849,5.5522,-1.3969,-0.5038,-0.5878,10.3142,-0.3496,0.2227,-3.2824,1.2595,0.3435
4019.861,7.6088,-0.2514,5.4995,-1.5725,-0.687,-0.5802,10.2759,-0.3208,0.2227,-3.3206,1.1145,0.4885
4109.873,7.5633,-0.3017,5.5402,-1.374,-0.3817,-0.4198,10.3238,-0.2873,0.1341,-3.2519,1.2061,0.3969
4204.981,7.5346,-0.2562,5.6144,-1.3282,-0.7328,-0.4885,10.2783,-0.3663,0.249,-3.229,1.0611,0.5191
4288.597,7.5729,-0.3783,5.4492,-1.3053,-0.6336,-0.626,10.2999,-0.3089,0.2203,-3.5038,1.2214,0.542
4377.373,7.6136,-0.2514,5.5952,-1.4809,-0.5725,-0.4809,10.2592,-0.261,0.3017,-3.2595,1.1756,0.1908
4468.618,7.58,-0.3879,5.4971,-1.3511,-0.8092,-0.6947,10.3525,-0.3879,0.2394,-3.374,1.3359,0.5725
4558.206,7.6902,-0.2945,5.5857,-1.4733,-0.5496,-0.542,10.3118,-0.4094,0.1245,-3.2748,1.1832,0.4275
4647.529,7.5633,-0.3089,5.4588,-1.4504,-0.8397,-0.7023,10.3549,-0.3472,0.2179,-3.2977,1.1908,0.3817
4769.843,7.5944,-0.3041,5.5138,-1.4046,-0.4275,-0.5496,10.3645,-0.3184,0.2801,-3.3359,1.0153,0.4809
4858.417,7.6064,-0.3136,5.5282,-1.542,-0.7786,-0.4809,10.307,-0.3352,0.2346,-3.2824,1.1985,0.2366
4947.87,7.6447,-0.328,5.6024,-1.4046,-0.6565,-0.8321,10.2975,-0.3472,0.2658,-3.0763,0.9847,0.4656
5038.75,7.5824,-0.3376,5.6192,-1.5344,-0.6336,-0.6412,10.3214,-0.2969,0.1772,-3.4046,1.0687,0.5267
5127.883,7.6303,-0.2825,5.5881,-1.4962,-0.3206,-0.687,10.2999,-0.2705,0.2203,-3.3511,1.084,0.2977
5219.938,7.6064,-0.2538,5.5713,-1.4733,-0.5038,-0.3664,10.3142,-0.3041,0.091,-3.1908,1.1985,0.3664
5308.65,7.6662,-0.2586,5.5402,-1.458,-0.5573,-0.6489,10.2759,-0.3807,0.2586,-3.4198,1.0382,0.3969
5399.88,7.6423,-0.3041,5.6096,-1.4809,-0.6336,-0.4809,10.3094,-0.328,0.261,-3.4809,0.855,0.5496
5490.085,7.616,-0.3041,5.5976,-1.2214,-0.6412,-0.6947,10.3789,-0.3448,0.1915,-3.2137,1.3969,0.542
5578.121,7.5776,-0.3017,5.4875,-1.4351,-0.5115,-0.6107,10.3621,-0.2969,0.2155,-3.2824,1.2901,0.3053
5668.194,7.616,-0.3041,5.4779,-1.4504,-0.687,-0.5802,10.2927,-0.3304,0.261,-3.5115,1.2901,0.2824
5757.931,7.6064,-0.3089,5.5976,-1.374,-0.3969,-0.5344,10.2903,-0.3519,0.2682,-3.2061,1.0229,0.313
5847.705,7.6327,-0.3304,5.5282,-1.3588,-0.4885,-0.4733,10.2735,-0.4286,0.2873,-3.5038,1.084,0.2748
5938.697,7.6782,-0.2753,5.5617,-1.4504,-0.5496,-0.626,10.3597,-0.3041,0.1724,-3.3206,1.2366,0.5649
6059.404,7.5753,-0.2849,5.5067,-1.3053,-0.6947,-0.5802,10.2807,-0.3376,0.2011,-3.3435,1.2672,0.4198
6147.866,7.6303,-0.158,5.5593,-1.4122,-0.374,-0.4198,10.3022,-0.3328,0.3208,-3.3435,1.1221,0.2824
6237.995,7.58,-0.3615,5.5952,-1.3511,-0.6031,-0.374,10.3262,-0.2945,0.1915,-3.2824,1.0611,0.458
6328.169,7.6806,-0.2586,5.521,-1.3664,-0.6183,-0.5267,10.2927,-0.3519,0.1867,-3.3282,0.9466,0.3511
6419.986,7.6686,-0.3472,5.5138,-1.2595,-0.5649,-0.5496,10.2879,-0.3256,0.1628,-3.3588,1.1298,0.3206
6508.25,7.6255,-0.2155,5.5881,-1.3817,-0.5267,-0.7023,10.3142,-0.34,0.1963,-3.1527,1.2443,0.4046
6598.093,7.5848,-0.3735,5.521,-1.4885,-0.6565,-0.5191,10.2711,-0.3567,0.1556,-3.1985,1.3664,0.4275
6690.106,7.6519,-0.3376,5.4923,-1.3664,-0.7099,-0.7023,10.2544,-0.3543,0.2131,-3.2519,1.229,0.4122
6808.646,7.6686,-0.2442,5.5857,-1.4809,-0.6031,-0.3664,10.3693,-0.316,0.0599,-3.5496,0.9924,0.4504
6867.587,7.6399,-0.316,5.521,-1.2672,-0.7023,-0.542,10.3262,-0.3089,0.2849,-3.0382,1.1908,0.2061
6957.681,7.5729,-0.2682,5.5833,-1.3588,-0.5725,-0.4962,10.2975,-0.3304,0.2298,-3.2595,1.1603,0.4656
7047.597,7.6327,-0.3184,5.5091,-1.4198,-0.626,-0.5191,10.2615,-0.3208,0.1628,-3.2824,1.1374,0.6031
7138.378,7.671,-0.1939,5.5498,-1.2901,-0.5496,-0.4046,10.3046,-0.3879,0.1604,-3.2824,1.0763,0.458
7228.492,7.5776,-0.3136,5.4229,-1.4885,-0.6718,-0.7634,10.2783,-0.316,0.2035,-3.2977,1.2901,0.3511
7347.406,7.6902,-0.2873,5.5498,-1.3511,-0.6183,-0.7099,10.307,-0.3496,0.2203,-3.2519,1.0382,0.4122
7468.694,7.616,-0.2825,5.5162,-1.4656,-0.4962,-0.5802,10.319,-0.3711,0.1484,-3.2901,1.1298,0.542
7528.024,7.6806,-0.2777,5.612,-1.3817,-0.6718,-0.5649,10.2735,-0.3855,0.1891,-3.3893,0.9008,0.2977
7618.931,7.58,-0.3687,5.4923,-1.3817,-0.6947,-0.5802,10.2903,-0.3184,0.2059,-3.145,1.2061,0.3817
7708.416,7.6543,-0.3232,5.5569,-1.1985,-0.5725,-0.4427,10.3094,-0.3208,0.1628,-3.2824,1.1221,0.313
7798.628,7.5872,-0.2155,5.5522,-1.4275,-0.6489,-0.8397,10.3094,-0.3639,0.1676,-3.3664,1.2901,0.4504
7888.359,7.616,-0.3496,5.5474,-1.4809,-0.5267,-0.6718,10.319,-0.2705,0.2586,-3.084,1.1221,0.3893
7979.974,7.5776,-0.3089,5.5258,-1.2519,-0.5038,-0.4809,10.3669,-0.3663,0.1484,-3.145,1.0229,0.4046
8070.039,7.6231,-0.3352,5.4995,-1.3511,-0.6794,-0.6183,10.3118,-0.3974,0.1652,-3.1679,0.9008,0.3817
8158.656,7.5776,-0.1987,5.533,-1.5496,-0.4504,-0.5878,10.3238,-0.3089,0.2251,-3.3206,1.2061,0.3817
8248.812,7.6184,-0.3687,5.4755,-1.3969,-0.5038,-0.4885,10.3094,-0.3759,0.237,-3.2137,1.2748,0.4809
8338.265,7.6902,-0.2059,5.5186,-1.3969,-0.2672,-0.7023,10.3525,-0.3112,0.1317,-3.1298,1.0611,0.5267
8426.647,7.6662,-0.2753,5.5498,-1.4275,-0.4427,-0.4656,10.3932,-0.3567,0.1724,-3.2061,1.2977,0.542
8547.184,7.6184,-0.1963,5.5833,-1.4122,-0.4198,-0.7176,10.307,-0.3041,0.2322,-3.3053,1.1832,0.3893
8637.617,7.5824,-0.3519,5.4971,-1.3817,-0.4427,-0.5267,10.3142,-0.3615,0.2705,-3.0305,1.2519,0.3435
8728.91,7.6567,-0.2131,5.6168,-1.4427,-0.5649,-0.6641,10.2352,-0.3615,0.3567,-3.229,1.1374,0.4504
8819.286,7.6854,-0.3448,5.5498,-1.2366,-0.6641,-0.6489,10.3118,-0.3352,0.1077,-3.4733,1.0763,0.4351
8907.454,7.6878,-0.2227,5.5522,-1.5267,-0.5725,-0.7023,10.3166,-0.3687,0.2251,-3.4122,1.084,0.3817
8998.516,7.6567,-0.3376,5.5689,-1.4198,-0.7176,-0.542,10.2759,-0.316,0.2777,-3.2901,0.9542,0.4962
9089.691,7.6016,-0.2634,5.5569,-1.5573,-0.4733,-0.4733,10.3765,-0.3328,0.2203,-3.1756,1.0687,0.458
9179.278,7.6351,-0.4094,5.6407,-1.5649,-0.5878,-0.542,10.3046,-0.3232,0.146,-3.3664,1.3511,0.6565
9267.942,7.6423,-0.3519,5.545,-1.2748,-0.4733,-0.4198,10.2352,-0.3424,0.2059,-3.313,1.0382,0.2672
9359.012,7.5968,-0.3496,5.5593,-1.4885,-0.6336,-0.5802,10.3166,-0.3256,0.1604,-3.145,1.229,0.3435
9449.497,7.6231,-0.3184,5.5162,-1.4198,-0.626,-0.542,10.307,-0.3591,0.2634,-3.3282,1.1832,0.3359
9538.652,7.6136,-0.2873,5.624,-1.3969,-0.6412,-0.6107,10.3453,-0.3831,0.0958,-3.374,1.4198,0.4046
9627.326,7.6136,-0.3017,5.5043,-1.4656,-0.6183,-0.4046,10.3142,-0.3256,0.2466,-3.3206,0.9389,0.3588
9719.202,7.5489,-0.2466,5.5929,-1.4885,-0.687,-0.5267,10.2687,-0.3208,0.1748,-3.3359,0.9237,0.458
9807.923,7.6327,-0.395,5.4923,-1.4351,-0.6107,-0.4427,10.3166,-0.3615,0.1125,-3.3359,1.2519,0.4351
9928.32,7.6112,-0.2251,5.5498,-1.374,-0.4351,-0.6565,10.2687,-0.3687,0.1532,-3.2214,1.2137,0.6183
10016.274,7.5968,-0.3615,5.5162,-1.458,-0.8015,-0.6489,10.3645,-0.2801,0.1293,-3.2977,1.2137,0.4427
10108.665,7.616,-0.2586,5.6599,-1.1985,-0.4046,-0.6107,10.331,-0.3926,0.2011,-3.4656,1.1679,0.3206
10197.193,7.5633,-0.328,5.5689,-1.4656,-0.6641,-0.5267,10.3022,-0.3591,0.1891,-3.4656,1.1603,0.2519
10288.509,7.6519,-0.2394,5.4971,-1.3893,-0.4122,-0.5038,10.2999,-0.3903,0.1437,-3.3359,1.1603,0.5573
10378.708,7.6279,-0.2753,5.5258,-1.3588,-0.7863,-0.4275,10.3573,-0.3448,0.17,-3.4962,1.1603,0.3969
10467.345,7.6686,-0.3424,5.5258,-1.5115,-0.771,-0.5496,10.3693,-0.2945,0.1269,-3.1908,1.0687,0.4733
10557.746,7.6614,-0.2753,5.545,-1.5115,-0.4962,-0.5573,10.3789,-0.3112,0.158,-3.5115,1.4275,0.6183
10647.084,7.6543,-0.3089,5.5617,-1.229,-0.6947,-0.5802,10.331,-0.3065,0.1556,-3.2366,1.3359,0.5191
10767.413,7.5753,-0.2131,5.5162,-1.3664,-0.5267,-0.5191,10.319,-0.3567,0.1915,-3.3817,1.0458,0.3893
10830.926,7.6567,-0.316,5.5354,-1.313,-0.6107,-0.6031,10.2903,-0.3472,0.1748,-3.2901,0.8855,0.5267
10916.831,7.5753,-0.2394,5.5857,-1.4122,-0.5267,-0.4275,10.3166,-0.2993,0.1724,-3.2748,0.8244,0.4962
11008.034,7.58,-0.2969,5.5067,-1.4504,-0.6489,-0.542,10.343,-0.3208,0.182,-3.3435,1.1374,0.4504
11097.38,7.6231,-0.2562,5.4755,-1.5115,-0.6718,-0.5038,10.3717,-0.3232,0.2298,-3.2901,1.3588,0.5573
11187.847,7.6495,-0.2634,5.4564,-1.3359,-0.7405,-0.5038,10.2927,-0.2993,0.1197,-3.3282,1.8779,0.542
11308.062,7.6662,-0.2873,5.5857,-1.2366,-0.8168,-0.4962,10.3286,-0.3184,0.2131,-3.2061,1.0229,0.4809
11400.526,7.6423,-0.3304,5.5522,-1.458,-0.4885,-0.5038,10.3358,-0.3687,0.2298,-3.374,1.2137,0.313
11486.824,7.6351,-0.2777,5.4851,-1.3053,-0.626,-0.3817,10.343,-0.316,0.1891,-3.4427,1.0458,0.4809
11576.837,7.5872,-0.2873,5.5019,-1.5191,-0.5344,-0.5878,10.2448,-0.3376,0.2083,-3.2214,-1.6565,0.1527
11667.232,7.6351,-0.3352,5.4827,-1.229,-0.458,-0.458,10.0293,-0.158,0.3807,-2.8931,0.4733,0.6336
11758.421,7.6351,-0.328,5.4731,-1.4504,-0.4427,-0.5954,10.3477,-0.3543,0.1197,-3.3511,1.542,0.3817
11877.41,7.604,-0.2753,5.533,-1.4275,-0.542,-0.4198,10.319,-0.2921,0.3089,-3.3206,1.0305,0.3282
11939.103,7.5872,-0.2825,5.5641,-1.5802,-0.6565,-0.5191,10.3022,-0.3041,0.2011,-3.4046,1.1603,0.4198
12028.321,7.6136,-0.3208,5.5929,-1.5115,-0.5802,-0.5954,10.3501,-0.3328,0.2059,-3.1603,1.1145,0.4046
12118.622,7.6136,-0.3639,5.5689,-1.4504,-0.6183,-0.5802,10.3549,-0.3017,0.2514,-3.3435,1.3435,0.3893
12209.083,7.6351,-0.2921,5.5665,-1.2824,-0.7405,-0.5115,10.3382,-0.3232,0.1724,-3.1527,1.2061,0.4275
12299.778,7.5824,-0.2753,5.5138,-1.4656,-0.5496,-0.6412,10.3501,-0.3735,0.1867,-2.9695,1.8855,0.0534
12387.346,7.5753,-0.2873,5.533,-1.4046,-0.4809,-0.6718,10.2999,-0.3543,0.2825,-3.3282,0.9847,0.3053
12479.034,7.5681,-0.2586,5.5785,-1.4122,-0.4885,-0.7786,10.3334,-0.3496,0.2466,-3.2748,1.1603,0.3282
12568.092,7.616,-0.2969,5.5737,-1.2824,-0.5649,-0.4275,10.2304,-0.3376,0.1173,-3.313,1.3511,0.5649
12688.25,7.6112,-0.2801,5.466,-1.3969,-0.771,-0.6031,10.3597,-0.3735,0.0766,-3.2901,1.2214,0.374
12778.075,7.6974,-0.3304,5.5186,-1.3206,-0.4962,-0.4733,10.2879,-0.3112,0.2873,-3.2748,1.2214,0.4809
12868.218,7.6327,-0.3041,5.5402,-1.374,-0.626,-0.4351,10.2448,-0.3759,0.17,-3.1527,1.1374,0.3817
12988.693,7.5441,-0.34,5.5545,-1.4046,-0.6336,-0.4427,10.2687,-0.3591,0.1963,-3.1679,1.1679,0.3664
13048.498,7.5633,-0.3615,5.5234,-1.4351,-0.5115,-0.4122,10.3166,-0.2969,0.2346,-3.1756,1.1832,0.3359
13138.779,7.6016,-0.2322,5.5929,-1.3588,-0.5191,-0.6107,10.2999,-0.34,0.2514,-3.1298,0.9924,0.2901
13226.362,7.6543,-0.2801,5.5617,-1.4198,-0.5573,-0.5496,10.3358,-0.3424,0.1532,-3.2901,0.9618,0.2977
13319.013,7.6567,-0.3041,5.5857,-1.4198,-0.4198,-0.5573,10.2879,-0.3304,0.2059,-3.2672,1.1679,0.4351
13409.073,7.5992,-0.2897,5.545,-1.4809,-0.5496,-0.687,10.2951,-0.3711,0.1652,-3.2748,1.1069,0.5649
13497.802,7.616,-0.237,5.5091,-1.4885,-0.458,-0.7023,10.2735,-0.3591,0.2562,-3.2824,1.1527,0.5038
13589.442,7.6327,-0.2586,5.5138,-1.4504,-0.5191,-0.4656,10.2304,-0.3448,0.2801,-3.2443,1.0916,0.4275
13678.544,7.6567,-0.3926,5.5498,-1.2901,-0.5344,-0.5649,10.3262,-0.3304,0.2945,-3.2824,1.1145,0.4656
13768.607,7.6016,-0.2634,5.5043,-1.374,-0.374,-0.542,10.3118,-0.3232,0.1077,-3.2748,1.3282,0.3664
13858.397,7.6231,-0.3256,5.4468,-1.4427,-0.5038,-0.2901,10.2735,-0.2945,0.1149,-3.2366,1.2977,0.4962
13978.544,7.6614,-0.2897,5.4875,-1.374,-0.5725,-0.7252,10.2903,-0.3783,0.2322,-3.3511,1.1679,0.4046
14096.672,7.6638,-0.2562,5.5809,-1.4656,-0.542,-0.1679,10.3549,-0.3519,0.2777,-3.2595,0.9695,0.6107
14156.485,7.6758,-0.3496,5.6168,-1.3511,-0.5878,-0.7328,10.2903,-0.3304,0.2107,-3.3588,1.1069,0.2977
14245.573,7.6351,-0.2227,5.5929,-1.2901,-0.4809,-0.458,10.2783,-0.4214,0.2107,-3.2061,0.9771,0.6565
14336.813,7.6734,-0.3831,5.521,-1.3511,-0.6565,-0.4656,10.3477,-0.3759,0.2155,-3.3053,1.2137,0.4046
14428.121,7.6447,-0.2801,5.6288,-1.5191,-0.4427,-0.4198,10.3262,-0.3448,0.2274,-3.458,1.3053,0.2748
14516.498,7.5609,-0.3687,5.545,-1.3435,-0.8321,-0.5038,10.3166,-0.3543,0.1221,-3.3053,1.084,0.4275
14608.772,7.6303,-0.2586,5.5761,-1.0992,-0.5802,-0.4962,10.3286,-0.3519,0.1413,-3.2519,1.2137,0.5496
14696.92,7.6447,-0.3807,5.5976,-1.4046,-0.855,-0.7099,10.2951,-0.3519,0.1149,-3.3359,1.2366,0.4427
14786.842,7.6231,-0.2753,5.5306,-1.3817,-0.5573,-0.6412,10.3262,-0.3256,0.2298,-3.2366,1.0916,0.4046
14876.716,7.592,-0.3208,5.4803,-1.5267,-0.5802,-0.5496,10.3238,-0.3304,0.1365,-3.2595,1.2748,0.3435
14966.521,7.5896,-0.328,5.5689,-1.2443,-0.5191,-0.458,10.3358,-0.2969,0.2394,-3.2901,0.8626,0.2977
15056.803,7.6662,-0.2562,5.4779,-1.3969,-0.4351,-0.4962,10.3142,-0.3519,0.1867,-3.3282,1.2672,0.4504
15147.085,7.6543,-0.2969,5.6479,-1.2977,-0.5038,-0.5573,10.3142,-0.3424,0.1987,-3.3664,1.0992,0.4198
15270.262,7.6327,-0.2705,5.4229,-1.374,-0.5573,-0.4809,10.307,-0.2993,0.1053,-3.0687,1.2748,0.3282
15356.697,7.6567,-0.3136,5.5282,-1.4198,-0.6641,-0.6565,10.319,-0.3663,0.261,-3.1756,1.0382,0.374
15447.996,7.6184,-0.2634,5.6168,-1.3817,-0.5573,-0.3893,10.3262,-0.3663,0.2227,-3.2443,1.1832,0.5115
15538.891,7.6567,-0.2945,5.5641,-1.4427,-0.5496,-0.6336,10.3837,-0.3591,0.3017,-3.3053,1.0534,0.3893
15628.02,7.6902,-0.3089,5.612,-1.3969,-0.4427,-0.3282,10.2783,-0.2921,0.1939,-3.4198,1.4733,0.4504
15717.729,7.6614,-0.3304,5.6264,-1.4198,-0.6718,-0.5802,10.2855,-0.3615,0.158,-3.3282,1.1832,0.5573
15806.174,7.6662,-0.2658,5.5234,-1.4351,-0.3588,-0.6183,10.2592,-0.3208,0.2298,-3.4733,1.1985,0.5496
15897.594,7.5944,-0.3136,5.533,-1.2595,-0.7634,-0.5954,10.2759,-0.328,0.1891,-3.4275,1.2443,0.4427
15987.774,7.6231,-0.2705,5.5234,-1.4733,-0.4809,-0.5115,10.386,-0.328,0.1341,-3.2901,1.145,0.2214
16076.017,7.6016,-0.395,5.5498,-1.3664,-0.4351,-0.6565,10.3238,-0.3543,0.2083,-3.1908,1.1832,0.5038
16168.335,7.616,-0.328,5.5929,-1.5344,-0.5802,-0.5267,10.3717,-0.3352,0.2179,-3.2519,1.0763,0.4427
16259.07,7.6064,-0.3136,5.5522,-1.3282,-0.7099,-0.626,10.3142,-0.3424,0.2035,-3.2595,1.1374,0.2748
16348.252,7.5848,-0.2825,5.5976,-1.5038,-0.4427,-0.5191,10.3118,-0.3519,0.1077,-3.2824,1.0687,0.4809
16437.875,7.6016,-0.3448,5.4995,-1.3893,-0.6183,-0.5802,10.3214,-0.3735,0.2011,-3.313,1.1908,0.4809
16557.602,7.616,-0.3041,5.5498,-1.4198,-0.4351,-0.2672,10.3884,-0.3136,0.0862,-3.229,1.4198,0.4809
16648.142,7.592,-0.3424,5.3965,-1.458,-0.7176,-0.7786,10.3214,-0.3831,0.1772,-3.2061,1.1374,0.3053
16736.258,7.6184,-0.2825,5.545,-1.3664,-0.4275,-0.6107,10.3645,-0.3903,0.2634,-3.2595,0.8321,0.3282
16827.576,7.592,-0.34,5.5737,-1.2901,-0.458,-0.5115,10.3262,-0.3376,0.1939,-3.1298,1.313,0.4733
16917.019,7.6351,-0.2227,5.5569,-1.4046,-0.3969,-0.4046,10.2687,-0.3783,0.2011,-3.3206,1.0916,0.4046
17005.018,7.5561,-0.3352,5.4708,-1.5115,-0.5115,-0.6641,10.3549,-0.3112,0.2155,-3.3817,1.2443,0.5573
17095.788,7.5872,-0.2251,5.6192,-1.3893,-0.7328,-0.626,10.2879,-0.3615,0.328,-3.1603,1.0611,0.4656
17185.505,7.5992,-0.3424,5.5138,-1.2672,-0.6183,-0.3893,10.2592,-0.3807,0.2682,-3.2672,1.3053,0.374
17276.059,7.6016,-0.2131,5.5857,-1.1908,-0.3817,-0.4427,10.2999,-0.3352,0.1963,-3.3282,1.2137,0.4198
17366.804,7.6231,-0.3926,5.6048,-1.4427,-0.5725,-0.4351,10.3645,-0.3448,0.1867,-3.2672,1.374,0.3664
17456.676,7.5968,-0.2634,5.5881,-1.458,-0.6489,-0.4351,10.2496,-0.3472,0.2227,-3.2824,1.2366,0.4656
17546.071,7.5824,-0.2945,5.533,-1.4198,-0.7786,-0.4733,10.2711,-0.3807,0.1125,-3.1527,1.2824,0.5496
17666.348,7.6231,-0.3112,5.5115,-1.2672,-0.4427,-0.5496,10.3166,-0.3735,0.2179,-3.4046,0.8321,0.2672
17756.29,7.592,-0.2801,5.5785,-1.3206,-0.4733,-0.6947,10.3142,-0.3519,0.1939,-3.3969,1.1298,0.4504
17846.177,7.6231,-0.3065,5.4468,-1.4351,-0.7786,-0.6183,10.2687,-0.3232,0.2298,-3.3359,1.1527,0.4275
17966.836,7.6112,-0.2945,5.5234,-1.4656,-0.5878,-0.5649,10.2663,-0.407,0.2538,-3.5496,1.1985,0.4733
18025.765,7.5226,-0.2801,5.6431,-1.374,-0.7099,-0.5038,10.3046,-0.3448,0.1221,-3.2519,1.2214,0.3206
18115.866,7.5776,-0.2298,5.5689,-1.3588,-0.4733,-0.5344,10.3358,-0.2825,0.34,-3.374,0.9008,0.2366
18205.365,7.5633,-0.3591,5.5019,-1.2901,-0.7099,-0.5496,10.3166,-0.3448,0.1676,-3.5191,1.084,0.3893
18296.192,7.6016,-0.2658,5.4899,-1.5344,-0.6031,-0.4198,10.3453,-0.3065,0.1963,-3.2366,1.1985,0.4885
18385.684,7.6303,-0.3519,5.533,-1.1985,-0.4427,-0.4504,10.2544,-0.3831,0.2107,-3.3282,1.0382,0.5344
18477.199,7.6279,-0.2873,5.5641,-1.4198,-0.458,-0.6107,10.2711,-0.395,0.2322,-3.3435,1.0916,0.3206
18566.209,7.5872,-0.2514,5.5426,-1.5191,-0.5649,-0.4122,10.3406,-0.316,0.2035,-3.3969,0.7557,0.3817
18686.287,7.6016,-0.3041,5.5522,-1.229,-0.7099,-0.4885,10.3022,-0.4022,0.3041,-3.2824,1.1832,0.5725
18745.738,7.501,-0.3112,5.4731,-1.5191,-0.5802,-0.4656,10.2783,-0.3496,0.1987,-3.3817,1.1603,0.5038
18866.079,7.6255,-0.3208,5.5809,-1.3969,-0.7023,-0.5344,10.2472,-0.3017,0.146,-3.1145,1.4275,0.4351
18956.231,7.6662,-0.261,5.4755,-1.3969,-0.6336,-0.4427,10.3573,-0.3328,0.1149,-3.5038,1.145,0.4809
19046.278,7.5848,-0.328,5.5282,-1.2748,-0.4962,-0.5954,10.2663,-0.3184,0.17,-3.3206,1.0382,0.3817
19136.53,7.5776,-0.2945,5.4995,-1.5725,-0.5496,-0.3664,10.3238,-0.3519,0.2251,-3.3817,1.1145,0.3206
19225.787,7.6327,-0.2658,5.5426,-1.5038,-0.626,-0.542,10.2831,-0.3807,0.2346,-3.3588,1.2824,0.2443
19315.868,7.5872,-0.3017,5.6575,-1.4962,-0.6183,-0.5725,10.2448,-0.3424,0.1891,-3.2672,1.229,0.5038
19407.205,7.6375,-0.3065,5.6264,-1.3511,-0.7939,-0.4809,10.3573,-0.3112,0.1053,-3.3282,1.4351,0.6031
19496.021,7.6327,-0.2825,5.5091,-1.3664,-0.5725,-0.3282,10.3286,-0.2897,0.2203,-2.9313,0.9313,0.4656
19587.815,7.6375,-0.3639,5.5378,-1.4198,-0.6565,-0.6718,10.3453,-0.3735,0.1604,-3.3893,1.2824,0.2595
19678.554,7.6112,-0.2873,5.6168,-1.458,-0.6794,-0.4809,10.2783,-0.3184,0.1891,-3.2519,0.855,0.4504
19765.529,7.6184,-0.3208,5.624,-1.4504,-0.7405,-0.6183,10.2975,-0.328,0.17,-3.458,1.0992,0.5649
19855.581,7.6758,-0.2945,5.5402,-1.6107,-0.3664,-0.6641,10.2663,-0.3687,0.3304,-3.3435,0.9695,0.2977
19945.922,7.671,-0.2969,5.442,-1.2672,-0.6794,-0.542,10.3214,-0.3735,0.1652,-3.2748,1.4733,0.4198
20066.17,7.6543,-0.2179,5.5545,-1.3588,-0.4656,-0.5344,10.3501,-0.3065,0.2059,-3.1756,1.5191,0.4122
20155.534,7.6375,-0.3519,5.4851,-1.3893,-0.7176,-0.5267,10.1778,-0.328,0.2634,-3.687,0.4733,0.374
20245.092,7.6207,-0.3041,5.5354,-1.2748,-0.4885,-0.4198,10.3453,-0.3352,0.2777,-3.1985,1.0763,0.4885
20335.85,7.5872,-0.3711,5.5857,-1.3969,-0.5496,-0.5191,10.3884,-0.3783,0.1844,-2.9924,1.4275,0.4962
20425.637,7.6567,-0.2634,5.4157,-1.4504,-0.6031,-0.687,10.343,-0.3448,0.3136,-3.5573,-1.1298,0.0229
20515.485,7.6136,-0.3184,5.5665,-1.3206,-0.7023,-0.3893,10.3118,-0.3543,0.2274,-3.313,1.2977,0.3893
20606.986,7.6184,-0.2514,5.5282,-1.4198,-0.6183,-0.542,10.2855,-0.3089,0.2346,-3.3282,1.2672,0.4427
20697.354,7.5585,-0.34,5.5306,-1.374,-0.5573,-0.4198,10.386,-0.4022,0.182,-3.229,1.3282,0.3206
20786.231,7.5824,-0.2753,5.6383,-1.4427,-0.7176,-0.7099,10.3094,-0.3759,0.2586,-3.4046,1.1908,0.5496
20875.653,7.6878,-0.2777,5.4971,-1.313,-0.458,-0.5954,10.2903,-0.3472,0.1604,-3.4198,1.1527,0.4504
20966.164,7.6064,-0.3112,5.6,-1.2672,-0.6107,-0.5344,10.2687,-0.3448,0.2538,-3.2519,1.0,0.313
21055.419,7.6207,-0.328,5.533,-1.3664,-0.6412,-0.4733,10.3334,-0.3472,0.158,-3.2443,0.9008,0.5267
21145.538,7.5657,-0.3089,5.454,-1.3359,-0.3969,-0.7252,10.2903,-0.2801,0.1748,-3.1679,1.2214,0.458
21237.539,7.6303,-0.3567,5.5067,-1.4198,-0.2137,-0.6489,10.3166,-0.328,0.1389,-3.1908,0.9847,0.458
21357.856,7.6088,-0.3232,5.5641,-1.3588,-0.4885,-0.7481,10.3406,-0.3472,0.1317,-3.3206,1.0382,0.4275
21445.31,7.5561,-0.3041,5.5641,-1.3817,-0.5191,-0.5573,10.2448,-0.2993,0.1604,-3.3511,0.9237,0.3282
21536.025,7.6327,-0.2897,5.6264,-1.2977,-0.2366,-0.6336,10.3142,-0.3496,0.1341,-3.0534,1.0,0.4275
21656.006,7.616,-0.2658,5.5641,-1.2977,-0.7176,-0.6718,10.2759,-0.4022,0.091,-3.3969,1.084,0.5267
21715.707,7.6351,-0.2682,5.5378,-1.2214,-0.5191,-0.5802,10.3453,-0.3352,0.1437,-3.2824,1.2443,0.5344
21806.314,7.7165,-0.3208,5.5282,-1.4962,-0.5878,-0.5954,10.2376,-0.407,0.2131,-3.2214,1.1298,0.3588
21895.87,7.6854,-0.2993,5.5905,-1.4122,-0.5725,-0.6031,10.319,-0.3112,0.1293,-3.4656,1.1679,0.4122
21984.623,7.6184,-0.3184,5.545,-1.5573,-0.4427,-0.6031,10.3286,-0.3352,0.1652,-3.4046,1.1908,0.458
22075.025,7.5896,-0.3376,5.4875,-1.3893,-0.4962,-0.4427,10.2759,-0.3208,0.1006,-3.1221,1.0687,0.5115
22165.725,7.5872,-0.34,5.6096,-1.2443,-0.5573,-0.5573,10.3382,-0.2945,0.1556,-3.2748,1.0916,0.5115
22255.56,7.6064,-0.2897,5.43,-1.458,-0.4809,-0.5954,10.3453,-0.3472,0.1915,-3.2443,0.9618,0.5267
22345.385,7.6902,-0.2801,5.5115,-1.3206,-0.8092,-0.5267,10.2855,-0.3328,0.146,-3.3359,1.1603,0.2672
22466.183,7.5944,-0.3256,5.4779,-1.4962,-0.4198,-0.3817,10.3645,-0.3136,0.1867,-3.1603,1.2443,0.4962
22525.399,7.6423,-0.3041,5.545,-1.3282,-0.4962,-0.5115,10.3597,-0.3424,0.182,-3.4351,1.3359,0.4122
22615.798,7.5705,-0.3041,5.5378,-1.3817,-0.4733,-0.542,10.3118,-0.3448,0.2921,-3.1298,1.0229,0.2519
22736.558,7.5681,-0.3065,5.5976,-1.3359,-0.6718,-0.3359,10.3621,-0.3017,0.2011,-3.2366,1.0,0.1985
22826.978,7.6112,-0.2993,5.521,-1.4656,-0.5725,-0.6947,10.2711,-0.2945,0.1987,-3.0687,1.1832,0.3893
22916.92,7.6423,-0.2921,5.5929,-1.3969,-0.6107,-0.687,10.3046,-0.3759,0.2131,-3.1603,1.0,0.374
23007.009,7.5729,-0.3304,5.5545,-1.2595,-0.4198,-0.3588,10.3214,-0.3448,0.1604,-3.4351,1.1221,0.5115
23096.998,7.5346,-0.3112,5.6048,-1.1145,-0.5878,-0.5191,10.343,-0.3304,0.1604,-3.1603,1.2366,0.5802
23187.026,7.6136,-0.3089,5.5809,-1.458,-0.8397,-0.6412,10.2496,-0.3328,0.2203,-3.2977,1.0153,0.313
23274.567,7.6375,-0.328,5.4827,-1.5191,-0.3893,-0.6107,10.2328,-0.2849,0.1532,-3.3664,1.1298,0.229
23365.931,7.5082,-0.2514,5.6024,-1.3969,-0.5191,-0.4046,10.2855,-0.3759,0.2729,-3.2443,0.9084,0.4046
23455.38,7.5824,-0.3208,5.5186,-1.3817,-0.7023,-0.2061,10.3382,-0.3328,0.1077,-3.1756,1.2519,0.5267
23545.073,7.6303,-0.2586,5.5138,-1.4885,-0.5038,-0.542,10.2424,-0.3759,0.2227,-3.2824,0.9008,0.5038
23637.218,7.592,-0.3208,5.7054,-1.3053,-0.4656,-0.687,10.3597,-0.3639,0.1556,-3.3893,1.0763,0.5115
23726.889,7.5944,-0.2011,5.5809,-1.4275,-0.5038,-0.542,10.398,-0.3472,0.158,-3.1756,1.2061,0.5038
23816.738,7.6327,-0.3112,5.521,-1.3893,-0.6183,-0.6183,10.3142,-0.3807,0.1508,-3.4962,1.0992,0.1908
23905.308,7.6207,-0.2729,5.545,-1.4275,-0.4427,-0.4198,10.343,-0.2705,0.1987,-3.3817,0.9389,0.4656
24025.096,7.6088,-0.3879,5.5402,-1.3588,-0.771,-0.5191,10.2304,-0.3304,0.328,-3.0382,1.084,0.3664
24115.299,7.5585,-0.2753,5.5617,-1.4275,-0.4122,-0.4809,10.3549,-0.4357,0.1796,-3.3435,1.2061,0.3969
24205.31,7.592,-0.261,5.4684,-1.2672,-0.6107,-0.3511,10.2783,-0.3136,0.1652,-3.5649,1.3282,0.4427
24295.747,7.671,-0.2873,5.6264,-1.2748,-0.5191,-0.5191,10.2256,-0.2562,0.2083,-3.3282,1.1069,0.3435
24385.292,7.6279,-0.2251,5.5138,-1.4504,-0.5191,-0.6565,10.3382,-0.3639,0.1604,-3.2672,1.1679,0.313
24475.143,7.6998,-0.3352,5.442,-1.5267,-0.3206,-0.5191,10.2903,-0.328,0.2346,-3.2214,1.1374,0.4275
24566.267,7.6016,-0.2322,5.4229,-1.4885,-0.6183,-0.8244,10.2903,-0.3184,0.2011,-3.3359,1.0687,0.6183
24655.119,7.6375,-0.3352,5.4755,-1.3359,-0.5725,-0.5649,10.3382,-0.3256,0.2298,-3.4809,1.1527,0.4962
24745.725,7.6375,-0.2705,5.5857,-1.2901,-0.5115,-0.4885,10.2783,-0.3998,0.1939,-3.2214,1.458,0.4962
24835.619,7.6591,-0.2897,5.5976,-1.3893,-0.5725,-0.6183,10.3358,-0.3879,0.1796,-3.1069,1.2519,0.3817
24925.386,7.5872,-0.2873,5.5498,-1.4885,-0.7939,-0.4275,10.331,-0.3615,0.2059,-3.2901,1.0458,0.3969
25015.265,7.5393,-0.3591,5.5569,-1.1756,-0.5038,-0.5954,10.3046,-0.3496,0.2035,-3.2595,0.9313,0.4046
25105.309,7.5992,-0.249,5.6336,-1.3664,-0.4733,-0.458,10.2759,-0.3352,0.1413,-3.3588,0.7939,0.3969
25195.948,7.6423,-0.316,5.4444,-1.3359,-0.6947,-0.4351,10.343,-0.3591,0.1796,-3.3359,1.3435,0.313
25315.805,7.6064,-0.3519,5.4971,-1.4427,-0.5115,-0.5725,10.3118,-0.2418,0.1532,-3.374,1.2824,0.5649
25404.257,7.5657,-0.3567,5.5354,-1.5191,-0.6947,-0.5496,10.3382,-0.4022,0.2155,-3.2748,1.229,0.4275
25495.531,7.6255,-0.2442,5.5785,-1.1985,-0.5954,-0.458,10.3549,-0.3735,0.2466,-3.3511,1.0458,0.3511
25585.15,7.5992,-0.3065,5.4684,-1.3435,-0.771,-0.4122,10.2687,-0.2897,0.2227,-3.2748,0.9389,0.4275
25676.036,7.5992,-0.3232,5.5522,-1.3969,-0.4962,-0.6031,10.3238,-0.3376,0.17,-3.2595,1.0076,0.4427
25766.33,7.592,-0.3472,5.5641,-1.2672,-0.542,-0.6794,10.3214,-0.3472,0.2035,-3.0916,1.0382,0.5802
25854.823,7.6543,-0.2849,5.4492,-1.4656,-0.5191,-0.5038,10.343,-0.3112,0.1317,-3.3053,1.145,0.4504
25945.454,7.5848,-0.3065,5.5138,-1.4351,-0.6412,-0.4885,10.307,-0.3136,0.2083,-3.374,1.2366,0.4427
26035.435,7.604,-0.2298,5.4899,-1.5267,-0.4046,-0.3893,10.2448,-0.3663,0.2274,-3.2137,1.2977,0.6412
26125.349,7.6184,-0.3256,5.4923,-1.4351,-0.4962,-0.5725,10.2711,-0.3448,0.1508,-3.2214,1.1374,0.3817
26215.244,7.6638,-0.3112,5.5282,-1.4351,-0.2137,-0.4809,10.2975,-0.3663,0.3065,-3.0763,1.084,0.4351
26305.115,7.6088,-0.3352,5.5043,-1.5878,-0.542,-0.6336,10.3286,-0.328,0.1652,-3.3053,0.8855,0.3664
26395.135,7.5968,-0.2897,5.5378,-1.3206,-0.6031,-0.4809,10.2951,-0.34,0.1197,-3.1679,1.0763,0.2519
26485.395,7.6136,-0.3041,5.6,-1.374,-0.6489,-0.6794,10.3238,-0.3687,0.2346,-3.5267,1.2061,0.3206
26575.207,7.7021,-0.2634,5.5593,-1.4733,-0.4504,-0.5725,10.3046,-0.3783,0.2442,-3.2824,1.3053,0.542
26695.275,7.592,-0.2682,5.5737,-1.5267,-0.5878,-0.3511,10.3238,-0.3112,0.2107,-3.2061,1.1527,0.3206
26784.883,7.58,-0.3352,5.5378,-1.3588,-0.6107,-0.6489,10.3022,-0.3543,0.17,-3.3282,1.0076,0.2824
26905.34,7.5729,-0.2825,5.4923,-1.4046,-0.6031,-0.6565,10.386,-0.3711,0.3089,-3.313,0.9924,0.3282
26964.886,7.5824,-0.2945,5.6455,-1.4046,-0.771,-0.3359,10.3238,-0.3591,0.1556,-3.2061,1.4198,0.542
27055.133,7.6375,-0.2634,5.545,-1.3664,-0.4046,-0.5496,10.3286,-0.3065,0.1389,-3.2595,1.3359,0.313
27144.079,7.6207,-0.2849,5.4253,-1.3206,-0.5954,-0.5115,10.2999,-0.3831,0.2849,-3.1527,1.0992,0.4046
27235.736,7.6279,-0.2538,5.545,-1.3359,-0.229,-0.6794,10.3334,-0.3472,0.0431,-3.3359,0.7023,0.2824
27325.174,7.6207,-0.2753,5.4875,-1.3817,-0.8092,-0.626,10.3118,-0.3472,0.1748,-3.3969,1.2595,0.4656
27415.162,7.6184,-0.3352,5.5976,-1.4733,-0.4962,-0.6183,10.2711,-0.3735,0.1963,-3.2901,1.2519,0.5115
27505.759,7.616,-0.2849,5.4851,-1.2137,-0.6641,-0.6336,10.2735,-0.3496,0.1772,-3.3435,1.1832,0.4427
27595.107,7.6543,-0.34,5.5426,-1.4046,-0.6031,-0.7786,10.3166,-0.3639,0.2753,-3.313,1.3206,0.3893
27685.019,7.6327,-0.2801,5.3965,-1.2977,-0.5191,-0.6031,10.3238,-0.3998,0.146,-3.3206,1.4427,0.4351
27774.847,7.5992,-0.3496,5.4947,-1.3206,-0.6565,-0.4046,10.2999,-0.3807,0.1987,-3.1527,1.2824,0.4809
27894.847,7.6591,-0.3041,5.5857,-1.4198,-0.2824,-0.4733,10.3142,-0.3687,0.2059,-3.4656,0.9618,0.5344
27984.882,7.5729,-0.3855,5.5498,-1.3359,-0.9313,-0.7252,10.2807,-0.2825,0.2011,-3.229,0.7634,0.4427
28074.895,7.5609,-0.2873,5.5761,-1.6183,-0.5191,-0.7634,10.2855,-0.3663,0.2634,-3.2901,1.229,0.4504
28165.442,7.6519,-0.3089,5.6096,-1.3893,-0.6718,-0.4733,10.2472,-0.2777,0.2682,-3.2366,1.2137,0.4656
28255.059,7.671,-0.1891,5.5282,-1.3053,-0.3817,-0.6565,10.3118,-0.3017,0.1724,-3.2214,1.2748,0.6183
28344.524,7.6303,-0.2873,5.521,-1.3969,-0.5115,-0.771,10.3453,-0.3591,0.2658,-3.2824,0.9924,0.5573
28465.448,7.5202,-0.2897,5.5665,-1.3206,-0.5954,-0.4504,10.2975,-0.3256,0.0503,-3.1069,1.084,0.5038
28526.126,7.5753,-0.328,5.5474,-1.2519,-0.5725,-0.8473,10.2592,-0.3735,0.1772,-3.4122,0.9618,0.4427
28615.086,7.6591,-0.2203,5.5522,-1.4046,-0.5115,-0.5878,10.2951,-0.3831,0.1317,-3.3588,1.0382,0.5573
28704.732,7.6375,-0.3112,5.5378,-1.3588,-0.6336,-0.5802,10.3741,-0.3376,0.1939,-3.2366,1.1374,0.4427
28795.301,7.6016,-0.2059,5.5665,-1.3511,-0.687,-0.4885,10.3501,-0.3567,0.1628,-3.2901,1.0992,0.4122
28884.8,7.5824,-0.3663,5.5306,-1.2977,-0.7481,-0.542,10.3406,-0.3591,0.1245,-3.2595,1.145,0.5191
28974.86,7.6231,-0.2538,5.5833,-1.2672,-0.4275,-0.4656,10.3334,-0.4118,0.1676,-3.2366,1.229,0.3817
29095.179,7.5417,-0.3424,5.5426,-1.3893,-0.4962,-0.4504,10.307,-0.3328,0.2107,-3.3053,1.4504,0.3664
29184.836,7.6591,-0.3136,5.5402,-1.4046,-0.5344,-0.5191,10.3238,-0.3208,0.2179,-3.5496,0.9542,0.2519
29275.136,7.58,-0.3543,5.4899,-1.4427,-0.5038,-0.5038,10.3765,-0.3831,0.091,-3.2519,1.2137,0.3053
29365.282,7.6064,-0.2538,5.4899,-1.5191,-0.7176,-0.4122,10.3717,-0.34,0.1173,-3.229,1.0763,0.5649
29454.145,7.5585,-0.3041,5.5857,-1.313,-0.6107,-0.6947,10.3022,-0.3089,0.2298,-3.2061,1.229,0.542
29544.734,7.6662,-0.3089,5.5186,-1.4351,-0.6489,-0.6489,10.3238,-0.34,0.1006,-3.5038,0.9542,0.5038
29635.289,7.6447,-0.2993,5.5258,-1.4504,-0.5191,-0.687,10.2448,-0.3184,0.2274,-3.0992,1.0611,0.4351
29724.326,7.6207,-0.3017,5.454,-1.4427,-0.5802,-0.5802,10.2185,-0.4022,0.079,-3.2519,1.0534,0.4733
29845.379,7.6016,-0.3112,5.442,-1.2672,-0.3817,-0.542,10.3262,-0.3759,0.2346,-3.1679,1.3435,0.5725
29904.878,7.5178,-0.2322,5.6336,-1.3206,-0.8092,-0.4275,10.3286,-0.2945,0.1173,-3.3664,1.3206,0.5496
29995.291,7.6495,-0.3352,5.4708,-1.4046,-0.5725,-0.5649,10.2951,-0.2849,0.091,-3.2824,1.1298,0.4809
30085.014,7.6375,-0.2825,5.624,-1.5267,-0.6107,-0.5878,10.331,-0.3807,0.079,-3.4122,1.0076,0.3359
30175.357,7.6638,-0.3543,5.5091,-1.2901,-0.5267,-0.5802,10.2663,-0.3328,0.17,-3.1985,1.0153,0.5115
30265.111,7.6543,-0.3328,5.5234,-1.4656,-0.771,-0.5267,10.3214,-0.3136,0.1796,-3.2748,1.0611,0.3206
30384.529,7.6327,-0.3448,5.4899,-1.4656,-0.8015,-0.4809,10.3884,-0.395,0.2155,-3.1679,1.1908,0.4351
30474.65,7.6112,-0.2658,5.5522,-1.6489,-0.6031,-0.458,10.3046,-0.3232,0.1867,-3.2061,1.2824,0.4427
30565.304,7.6136,-0.3496,5.5761,-1.542,-0.6794,-0.4809,10.3118,-0.3879,0.2346,-3.3359,1.2061,0.4427
30655.368,7.6567,-0.3112,5.612,-1.313,-0.6183,-0.7252,10.3022,-0.34,0.2538,-3.4809,0.9847,0.5191
30745.703,7.6112,-0.328,5.5402,-1.4198,-0.4351,-0.4275,10.3334,-0.3879,0.2274,-3.3664,0.8626,0.4046
30835.175,7.5824,-0.3472,5.6312,-1.4046,-0.5954,-0.3588,10.307,-0.3567,0.1987,-3.2519,1.1908,0.6641
30925.626,7.6255,-0.249,5.5498,-1.374,-0.4351,-0.5573,10.3142,-0.3807,0.2035,-3.4198,0.916,0.4733
31014.319,7.6447,-0.3376,5.5282,-1.374,-0.6336,-0.6641,10.2903,-0.3759,0.1508,-3.2061,1.5725,0.4198
31104.778,7.6614,-0.2322,5.5761,-1.374,-0.6107,-0.5573,10.3094,-0.3089,0.261,-3.1756,1.4198,0.4122
31195.486,7.5585,-0.3783,5.5354,-1.5267,-0.4351,-0.5344,10.3214,-0.3926,0.1101,-3.2519,0.8244,0.4504
31285.933,7.5896,-0.2682,5.5929,-1.458,-0.3969,-0.4962,10.2735,-0.3472,0.2538,-3.4275,1.1985,0.4351
31374.764,7.6231,-0.3567,5.466,-1.4046,-0.5649,-0.687,10.2759,-0.395,0.2083,-3.2061,0.7481,0.5191
31465.581,7.5561,-0.2035,5.6455,-1.3893,-0.4962,-0.4504,10.2424,-0.3567,0.2107,-3.4885,1.2061,0.3969
31555.929,7.6351,-0.3376,5.5306,-1.3969,-0.5725,-0.5649,10.2831,-0.2993,0.3089,-3.1756,1.0611,0.2672
31674.515,7.6207,-0.261,5.5115,-1.4809,-0.5267,-0.6565,10.3932,-0.34,0.1963,-3.3969,1.2595,0.4122
31764.911,7.5944,-0.3879,5.624,-1.4504,-0.5954,-0.5496,10.3501,-0.3328,0.2346,-3.2061,1.1221,0.5038
31855.217,7.6327,-0.1939,5.6,-1.542,-0.5878,-0.3511,10.3214,-0.34,0.2801,-3.2595,1.2061,0.4962
31944.676,7.5872,-0.3448,5.5474,-1.3282,-0.6947,-0.6336,10.3765,-0.3424,0.1772,-3.2672,1.0763,0.2672
32036.914,7.6327,-0.2514,5.6048,-1.3435,-0.4962,-0.687,10.3358,-0.3998,0.2346,-3.2901,0.9313,0.3511
32125.083,7.671,-0.3879,5.4971,-1.4733,-0.6336,-0.5802,10.2807,-0.3208,0.1939,-3.3435,1.1069,0.5649
32214.874,7.5992,-0.3184,5.5809,-1.3435,-0.4733,-0.6565,10.3214,-0.2921,0.2586,-3.3435,1.2061,0.2519
32305.543,7.6231,-0.3112,5.5019,-1.3588,-0.5344,-0.6565,10.2472,-0.3232,0.1125,-3.2137,1.3664,0.313
32395.03,7.6016,-0.2825,5.6024,-1.3664,-0.4733,-0.4962,10.3501,-0.3136,0.2634,-3.2977,1.1221,0.458
32484.073,7.5968,-0.2777,5.6,-1.4885,-0.5725,-0.5649,10.2975,-0.3591,0.2729,-3.2443,1.0382,0.3817
32574.548,7.616,-0.3089,5.5402,-1.2443,-0.5191,-0.6412,10.3334,-0.3184,0.2227,-3.1679,1.1679,0.4656
32665.058,7.5848,-0.2682,5.5186,-1.374,-0.7099,-0.5344,10.3262,-0.3376,0.2274,-3.3664,0.9771,0.3053
32754.513,7.6327,-0.3615,5.5138,-1.313,-0.4427,-0.5649,10.2903,-0.3543,0.1939,-3.313,1.145,0.2977
32907.184,7.5369,-0.2514,5.5115,-1.4733,-0.6489,-0.4046,10.2903,-0.3448,0.1628,-3.6336,1.0916,0.2595
32965.227,7.5848,-0.395,5.4229,-1.2214,-0.374,-0.6641,10.3286,-0.3903,0.1341,-3.374,1.3664,0.4962
33056.166,7.6614,-0.2083,5.5785,-1.2061,-0.4656,-0.4504,10.2975,-0.3591,0.237,-3.1374,1.1679,0.4885
33146.087,7.592,-0.3543,5.5545,-1.3282,-0.6412,-0.5496,10.2831,-0.3017,0.3448,-3.1374,0.9618,0.4351
33235.659,7.58,-0.2442,5.5019,-1.4809,-0.5878,-0.5878,10.3286,-0.2849,0.146,-3.4733,1.0076,0.3588
33324.089,7.6447,-0.3424,5.5785,-1.313,-0.687,-0.4809,10.2735,-0.2969,0.1293,-3.1221,1.2366,0.542
33414.432,7.5393,-0.249,5.5354,-1.458,-0.542,-0.5344,10.3286,-0.2969,0.1628,-3.2901,1.0534,0.3282
33536.332,7.6327,-0.3208,5.5091,-1.4656,-0.6641,-0.7405,10.2879,-0.3735,0.1867,-3.2214,1.2366,0.4809
33595.436,7.5776,-0.2921,5.5282,-1.2901,-0.4656,-0.542,10.2807,-0.3496,0.1365,-3.2595,1.3053,0.4885
33684.641,7.5968,-0.3112,5.5043,-1.313,-0.6947,-0.7099,10.2831,-0.3543,0.1365,-3.4351,1.2824,0.4885
33805.258,7.5992,-0.3304,5.521,-1.3817,-0.4275,-0.6412,10.2663,-0.3232,0.1748,-3.1756,1.0305,0.3588
33865.548,7.6255,-0.2729,5.6024,-1.542,-0.5573,-0.6794,10.2759,-0.3663,0.261,-2.9695,1.0,0.2824
33957.278,7.6231,-0.3352,5.466,-1.4962,-0.6107,-0.5038,10.2687,-0.3448,0.2466,-3.3053,0.9695,0.2901
34046.121,7.6231,-0.2705,5.5641,-1.5954,-0.5267,-0.542,10.3358,-0.3472,0.2251,-3.2595,0.9695,0.3511
34165.166,7.592,-0.3855,5.5905,-1.3435,-0.7023,-0.7328,10.2448,-0.3304,0.2466,-3.1985,1.2595,0.4427
34254.501,7.6088,-0.2658,5.5689,-1.3435,-0.5267,-0.5344,10.3501,-0.2753,0.1173,-3.1603,1.0305,0.4885
34345.122,7.6136,-0.2634,5.5641,-1.4733,-0.6107,-0.6031,10.3621,-0.328,0.1149,-3.0229,1.2061,0.2595
34435.566,7.6303,-0.328,5.5378,-1.3206,-0.7099,-0.5496,10.2639,-0.3184,0.2562,-3.2672,0.8092,0.5954
34524.503,7.6447,-0.4094,5.5378,-1.6031,-0.5496,-0.6489,10.2879,-0.3615,0.158,-3.3206,0.8855,0.4962
34614.096,7.6064,-0.328,5.5234,-1.313,-0.6947,-0.5573,10.3118,-0.3711,0.1365,-3.2137,1.1145,0.3664
34704.443,7.5944,-0.3711,5.5833,-1.4656,-0.5878,-0.4733,10.2879,-0.3136,0.2322,-3.4427,0.9847,0.5267
34794.951,7.604,-0.2466,5.521,-1.4885,-0.5878,-0.542,10.2113,-0.2921,0.2298,-3.2824,1.2519,0.5573
34885.192,7.6375,-0.3448,5.5306,-1.458,-0.4733,-0.5344,10.3262,-0.2825,0.1676,-3.1832,1.2672,0.5267
34974.519,7.6998,-0.3184,5.5019,-1.3664,-0.6183,-0.5878,10.2783,-0.3615,0.1556,-3.1679,1.2214,0.5191
35065.1,7.6064,-0.328,5.6096,-1.2748,-0.5573,-0.771,10.3597,-0.3472,0.2227,-3.3282,0.9847,0.458
35154.659,7.6399,-0.3232,5.5737,-1.5115,-0.626,-0.6336,10.2424,-0.316,0.17,-3.1069,0.9084,0.3435
35244.505,7.5872,-0.2634,5.4947,-1.3817,-0.4809,-0.5191,10.3142,-0.3112,0.2179,-3.3206,1.1908,0.4733
35336.272,7.6519,-0.3711,5.521,-1.2824,-0.7939,-0.4962,10.3597,-0.3448,0.1604,-3.2977,1.4427,0.313
35454.43,7.6543,-0.2538,5.4851,-1.4198,-0.5344,-0.542,10.3046,-0.3591,0.103,-3.2901,1.084,0.5344
35544.579,7.6016,-0.3448,5.5067,-1.4504,-0.374,-0.4504,10.2855,-0.3974,0.0718,-3.4122,1.145,0.3588
35635.664,7.5513,-0.261,5.4636,-1.229,-0.6412,-0.5038,10.3142,-0.3519,0.3328,-3.3511,1.3359,0.4046
35724.59,7.5513,-0.3807,5.5881,-1.3893,-0.6336,-0.5725,10.2472,-0.3567,0.079,-3.3282,1.1221,0.3588
35814.584,7.5729,-0.2274,5.533,-1.458,-0.3893,-0.7252,10.3142,-0.3376,0.2035,-3.1679,1.2901,0.4962
35903.954,7.6207,-0.3136,5.4636,-1.3817,-0.3282,-0.5725,10.2951,-0.3472,0.2514,-3.2061,1.2137,0.5802
35994.681,7.6519,-0.3352,5.5833,-1.3435,-0.5954,-0.4198,10.3525,-0.3879,0.1724,-3.2214,1.2672,0.3588
36085.725,7.5657,-0.2873,5.6264,-1.3511,-0.5878,-0.4427,10.2855,-0.3376,0.1221,-3.4504,1.2366,0.3053
36174.539,7.6351,-0.2801,5.5306,-1.3359,-0.7634,-0.5344,10.3142,-0.3184,0.1604,-3.229,1.2214,0.374
36266.17,7.6064,-0.2945,5.5809,-1.374,-0.5573,-0.3664,10.3717,-0.3448,0.2035,-3.1069,0.9389,0.4504
36354.54,7.5872,-0.3041,5.5905,-1.2443,-0.3511,-0.5573,10.3932,-0.3424,0.2107,-3.2748,1.313,0.5573
36444.576,7.5705,-0.2586,5.5234,-1.4809,-0.6412,-0.5191,10.2663,-0.316,0.1987,-3.2214,1.2901,0.4733
36534.043,7.6375,-0.3926,5.4851,-1.3435,-0.374,-0.4962,10.3334,-0.3926,0.2753,-3.4046,1.1756,0.4275
36654.402,7.6303,-0.2274,5.6048,-1.3969,-0.6565,-0.5573,10.2639,-0.3711,0.1604,-3.3359,1.0992,0.5115
36744.849,7.5633,-0.3376,5.6527,-1.3282,-0.6031,-0.6107,10.3214,-0.3089,0.2131,-3.3817,0.9542,0.4962
36835.013,7.5824,-0.2945,5.5019,-1.4885,-0.5649,-0.3893,10.307,-0.3376,0.2634,-3.5115,0.9695,0.3817
36924.804,7.6016,-0.395,5.4779,-1.4351,-0.6412,-0.458,10.2951,-0.3903,0.1508,-3.2061,1.1145,0.4656
37015.273,7.6351,-0.2993,5.6096,-1.2748,-0.6107,-0.5573,10.3262,-0.3112,0.3448,-3.3893,0.8244,0.3435
37104.359,7.5992,-0.3591,5.5545,-1.458,-0.4122,-0.7023,10.3813,-0.3855,0.1556,-3.5496,1.0153,0.3817
37195.163,7.6016,-0.2729,5.545,-1.4427,-0.5038,-0.458,10.3549,-0.3519,0.1915,-3.3664,0.8244,0.3969
37286.948,7.5609,-0.3567,5.5258,-1.3817,-0.6412,-0.4198,10.2855,-0.2945,0.2155,-3.229,1.0076,0.4962
37374.413,7.5417,-0.2394,5.5138,-1.4504,-0.6641,-0.5725,10.2544,-0.3879,0.1293,-3.3053,1.0153,0.4656
37466.744,7.5968,-0.3711,5.6551,-1.3435,-0.7099,-0.626,10.319,-0.3567,0.3112,-3.0687,1.229,0.4885
37555.063,7.6471,-0.3208,5.6288,-1.458,-0.4809,-0.3817,10.2879,-0.3256,0.1245,-3.4122,1.1298,0.4809
37644.876,7.5609,-0.2634,5.5138,-1.542,-0.626,-0.5496,10.2687,-0.316,0.1652,-3.374,1.1221,0.5038
37736.074,7.5992,-0.3136,5.5019,-1.2977,-0.313,-0.5649,10.2759,-0.3926,0.2394,-3.3893,1.0992,0.5496
37856.136,7.6854,-0.3184,5.533,-1.3969,-0.5344,-0.5954,10.3382,-0.328,0.2059,-3.3435,1.2443,0.4275
37946.075,7.6447,-0.3041,5.5522,-1.374,-0.6336,-0.374,10.3358,-0.3615,0.2801,-3.2824,1.084,0.4427
38036.356,7.5848,-0.3089,5.4636,-1.3588,-0.3053,-0.5878,10.3214,-0.3089,0.1772,-3.1985,1.1832,0.5191
38126.002,7.5944,-0.3256,5.5019,-1.4351,-0.7023,-0.5038,10.3669,-0.3903,0.1844,-3.3588,1.2443,0.4733
38216.239,7.5992,-0.2921,5.533,-1.313,-0.3435,-0.5115,10.3669,-0.3184,0.1724,-3.2672,1.2901,0.3511
38306.008,7.5298,-0.3136,5.5378,-1.3359,-0.6412,-0.5725,10.3453,-0.3519,0.2729,-3.4809,1.2748,0.4504
38394.845,7.6447,-0.2418,5.6192,-1.5344,-0.6336,-0.5038,10.252,-0.3663,0.2107,-3.1603,1.3435,0.2137
38483.415,7.6279,-0.2658,5.5522,-1.3664,-0.6947,-0.5038,10.2472,-0.3974,0.395,-3.1603,0.855,0.4046
38574.374,7.5896,-0.2682,5.5378,-1.374,-0.5496,-0.458,10.3166,-0.3687,0.2562,-3.3282,1.2519,0.2672
38673.397,7.5753,-0.316,5.5402,-1.2901,-0.5649,-0.6641,10.252,-0.3879,0.2945,-3.1908,1.4198,0.3206
38754.426,7.6016,-0.2466,5.5306,-1.3435,-0.6794,-0.4504,10.3214,-0.3591,0.1796,-3.229,1.2366,0.3893
38844.53,7.5896,-0.395,5.4779,-1.2901,-0.4962,-0.3511,10.3334,-0.3543,0.237,-3.0153,1.2977,0.2977
38934.683,7.6543,-0.3017,5.5306,-1.6718,-0.6641,-0.687,10.3214,-0.3998,0.2442,-3.313,1.1221,0.4275
39024.404,7.6591,-0.3615,5.5641,-1.4275,-0.3893,-0.4885,10.2879,-0.3831,0.2394,-3.2824,0.7863,0.542
39144.196,7.5824,-0.3496,5.5545,-1.4427,-0.5802,-0.5649,10.2879,-0.3639,0.1748,-3.2366,1.1069,0.4351
39235.364,7.6184,-0.2921,5.6096,-1.5802,-0.7023,-0.6183,10.2879,-0.3304,0.2011,-3.374,1.0458,0.313
39324.414,7.6614,-0.2945,5.5881,-1.3588,-0.5649,-0.458,10.3837,-0.3543,0.1915,-3.313,1.0534,0.5038
39414.312,7.7141,-0.3017,5.5737,-1.4122,-0.5802,-0.3664,10.2568,-0.3543,0.237,-3.4427,0.9237,0.4885
39565.697,7.6399,-0.3615,5.5713,-1.2214,-0.4427,-0.6336,10.2951,-0.3831,0.2658,-3.2366,1.1679,0.4504
39595.841,7.5489,-0.2466,5.624,-1.4046,-0.5573,-0.3435,10.2855,-0.2729,0.1652,-3.3053,1.0153,0.458
39774.128,7.6902,-0.2705,5.5402,-1.5191,-0.6183,-0.3969,10.3382,-0.3903,0.1987,-3.2061,0.8931,0.3511
39864.832,7.6423,-0.3256,5.6,-1.4198,-0.6107,-0.5191,10.319,-0.3496,0.1532,-3.4885,1.0305,0.4427
39954.769,7.6662,-0.2849,5.454,-1.458,-0.6641,-0.458,10.3118,-0.3232,0.3256,-3.2061,1.2595,0.5954
40044.683,7.6758,-0.2897,5.5689,-1.4427,-0.6641,-0.5649,10.3813,-0.3807,0.1748,-3.2061,1.1603,0.4198
40134.866,7.6614,-0.3376,5.5426,-1.2824,-0.7557,-0.542,10.3406,-0.3639,0.2107,-3.3359,1.0687,0.3817
40224.358,7.6136,-0.3017,5.5234,-1.4962,-0.5191,-0.3282,10.24,-0.3519,0.2442,-3.1679,1.3282,0.5267
40313.837,7.6614,-0.3232,5.6527,-1.4122,-0.6641,-0.5038,10.3214,-0.3783,0.2418,-3.4656,1.1985,0.542
40435.41,7.6878,-0.237,5.5737,-1.3206,-0.5573,-0.5038,10.2639,-0.3663,0.2298,-3.4656,1.0916,0.3206
40524.062,7.5872,-0.3472,5.5881,-1.3282,-0.5038,-0.5038,10.3501,-0.3352,0.1173,-3.0458,1.1221,0.2748
40616.279,7.6399,-0.2729,5.5019,-1.3282,-0.4962,-0.6489,10.3094,-0.3472,0.1772,-3.2595,0.855,0.2443
40703.686,7.6686,-0.3472,5.5426,-1.2595,-0.7023,-0.6031,10.3286,-0.3256,0.2346,-3.2748,1.229,0.4427
40801.721,7.7045,-0.3376,5.5282,-1.4427,-0.5038,-0.5267,10.2687,-0.2849,0.182,-3.3969,1.2137,0.4504
40884.146,7.5657,-0.3017,5.5545,-1.3817,-0.6031,-0.5878,10.2855,-0.3136,0.1293,-3.3588,1.0305,0.3893
40974.309,7.6136,-0.2179,5.5905,-1.4962,-0.626,-0.4962,10.319,-0.3735,0.1748,-3.1908,1.1679,0.374
41064.594,7.5489,-0.2729,5.5402,-1.4198,-0.626,-0.4198,10.3166,-0.3352,0.1867,-3.2672,1.3435,0.3817
41154.702,7.6423,-0.3112,5.5737,-1.3282,-0.3893,-0.4122,10.3046,-0.3352,0.1197,-3.2519,1.2519,0.4275
41244.283,7.5753,-0.3256,5.5737,-1.3511,-0.6794,-0.5496,10.3525,-0.34,0.1508,-3.2061,0.7863,0.458
41335.329,7.6184,-0.3448,5.521,-1.3511,-0.7557,-0.5496,10.3094,-0.3328,0.1676,-3.2137,1.0076,0.5115
41424.46,7.6303,-0.3998,5.6144,-1.3359,-0.4809,-0.626,10.2999,-0.3328,0.2825,-3.4122,1.1221,0.3206
41513.994,7.6088,-0.2873,5.6216,-1.3053,-0.4809,-0.6031,10.2639,-0.3089,0.1891,-3.3969,1.2366,0.5267
41604.358,7.5992,-0.3017,5.4396,-1.5649,-0.4504,-0.6794,10.3262,-0.3472,0.1987,-3.1603,1.2519,0.4198
41724.355,7.5992,-0.2777,5.5522,-1.542,-0.5802,-0.4046,10.2831,-0.3711,0.1556,-3.3664,1.3435,0.5573
41846.578,7.6351,-0.3448,5.6048,-1.4962,-0.7328,-0.6641,10.3525,-0.3184,0.1508,-3.2519,1.0076,0.4656
41904.28,7.6782,-0.3184,5.5426,-1.2977,-0.7023,-0.4198,10.3501,-0.328,0.2921,-3.313,0.9542,0.4122
41994.766,7.5274,-0.3926,5.5019,-1.4122,-0.6794,-0.5573,10.2424,-0.3687,0.1628,-3.4122,0.916,0.4427
42084.045,7.6495,-0.3543,5.4995,-1.2366,-0.3282,-0.4427,10.2927,-0.2897,0.091,-3.3435,1.2214,0.3817
42176.691,7.6088,-0.3783,5.6024,-1.4275,-0.7176,-0.4733,10.2927,-0.4046,0.1508,-3.2061,1.1298,0.3817
42267.517,7.6279,-0.2945,5.5474,-1.2137,-0.4046,-0.458,10.2807,-0.2777,0.1245,-3.1374,1.084,0.3969
42355.973,7.6543,-0.2753,5.6072,-1.4046,-0.5878,-0.6947,10.3477,-0.3328,0.1987,-3.1756,0.9237,0.3817
42444.424,7.6399,-0.2945,5.442,-1.4733,-0.5878,-0.4351,10.2951,-0.3041,0.1867,-3.2824,1.1756,0.5496
42534.63,7.6184,-0.2227,5.5689,-1.4275,-0.6489,-0.6565,10.3286,-0.3112,0.2442,-3.5038,1.1221,0.4275
42625.053,7.6327,-0.3352,5.4971,-1.1832,-0.4275,-0.5725,10.3118,-0.3112,0.1484,-3.3588,0.9389,0.2824
42714.266,7.6303,-0.3352,5.4779,-1.4656,-0.3435,-0.4427,10.3166,-0.3208,0.1748,-3.2061,1.1298,0.4962
42804.528,7.6375,-0.3424,5.4803,-1.3359,-0.4962,-0.7328,10.398,-0.4046,0.0862,-3.3893,1.4885,0.4275
42926.304,7.6207,-0.2993,5.5593,-1.3511,-0.3817,-0.5954,10.4052,-0.4118,0.1389,-3.2748,1.2595,0.1756
43014.381,7.5609,-0.3017,5.4899,-1.4733,-0.7023,-0.6565,10.3334,-0.3328,0.1844,-3.3359,1.0,0.4275
43105.065,7.6136,-0.2849,5.636,-1.374,-0.6183,-0.4809,10.3238,-0.3711,0.1772,-3.1374,1.1603,0.3817
43194.378,7.5848,-0.2945,5.5306,-1.3969,-0.5954,-0.542,10.3358,-0.3974,0.1652,-3.2061,1.1908,0.5954
43284.334,7.6184,-0.3519,5.5043,-1.3664,-0.626,-0.458,10.2999,-0.316,0.2059,-3.4885,1.4275,0.5344
43374.365,7.7141,-0.3256,5.6479,-1.2672,-0.6183,-0.5649,10.3094,-0.3065,0.146,-3.2443,1.0611,0.3893
43464.662,7.6016,-0.3448,5.5857,-1.313,-0.6412,-0.7176,10.3214,-0.3376,0.182,-3.2672,1.0076,0.3817
43556.499,7.6184,-0.2705,5.5474,-1.3206,-0.5115,-0.4733,10.3765,-0.3879,0.2394,-3.2366,1.1985,0.5038
43646.209,7.5992,-0.3017,5.5617,-1.2824,-0.542,-0.5267,10.3118,-0.3663,0.2682,-3.4656,1.3359,0.3817
43736.749,7.6447,-0.3112,5.5761,-1.3817,-0.7252,-0.5878,10.3597,-0.3543,0.1556,-3.3664,1.2137,0.6183
43825.102,7.6495,-0.2562,5.5234,-1.4275,-0.4885,-0.5038,10.319,-0.3807,0.2011,-3.1527,1.1374,0.4275
43915.836,7.5848,-0.3065,5.6575,-1.4122,-0.5115,-0.5038,10.3717,-0.3519,0.2203,-3.1756,1.1221,0.3511
44006.518,7.6184,-0.2658,5.5809,-1.5038,-0.458,-0.4809,10.3286,-0.316,0.2298,-3.2977,1.0153,0.6031
44095.84,7.6136,-0.2753,5.6431,-1.4275,-0.7023,-0.5725,10.2328,-0.3232,0.1939,-3.0611,0.855,0.2901
44216.09,7.6399,-0.3208,5.6072,-1.2672,-0.4809,-0.6565,10.2927,-0.3735,0.2442,-3.3969,1.1145,0.3282
44304.561,8.1307,-0.5507,4.4891,-13.4962,-54.3893,-13.4427,10.2448,-0.3256,0.2298,-3.2824,0.8244,0.3435
44394.398,7.5537,-0.3089,5.7317,-1.458,-20.6107,-0.8015,10.3693,-0.3591,0.2801,-3.5038,1.1756,0.3588
44484.43,8.0206,-0.2251,5.0589,-5.0076,2.9313,-4.084,10.2927,-0.3448,0.1772,-3.1985,1.4198,0.5878
44574.487,8.6981,0.1844,5.1858,-5.5573,13.3435,21.3282,10.3214,-0.3974,0.2107,-3.3511,1.0153,0.5649
44665.208,8.418,-0.0072,5.0494,-22.771,-15.8626,43.5267,10.2615,-0.3998,0.2227,-3.3664,1.229,0.3282
44754.997,8.2217,-1.7861,6.6798,22.687,-1.8015,16.4733,10.3286,-0.4286,0.2059,-3.2214,1.0,0.5115
44844.826,9.1578,-1.6305,4.81,-8.5115,16.3969,33.2519,10.2855,-0.3208,0.2059,-3.4656,1.0382,0.2443
44937.163,7.4675,-2.8132,6.5434,-49.1069,-7.2137,32.2977,10.2975,-0.3112,0.1173,-3.2672,1.3969,0.4656
45024.663,7.6734,-4.5322,4.798,-78.7252,-30.5038,84.2214,10.3477,-0.2897,0.1772,-3.3893,1.1603,0.5191
45116.886,7.3071,-5.4085,4.13,-36.8931,-21.5038,90.1145,10.2807,-0.3519,0.237,-3.4198,1.1374,0.4427
45204.72,6.5529,-4.9464,3.2561,9.9695,-47.5802,32.3435,10.3525,-0.3184,0.1891,-3.2443,1.0153,0.313
45324.661,6.9025,-5.4612,2.818,42.3359,-36.1374,44.8092,10.3118,-0.34,0.1987,-3.4198,1.3664,0.5878
45416.19,8.6072,-5.7437,0.431,120.5802,-27.5267,41.0763,10.2544,-0.2777,0.2801,-3.3282,1.0534,0.3817
45505.866,4.7309,-4.4245,3.553,82.9237,40.5496,19.626,10.3022,-0.2897,0.2801,-3.4733,1.0382,0.3206
45594.887,6.857,-5.3103,4.7022,48.084,22.9084,-49.7786,10.2831,-0.3591,0.1125,-3.3053,1.1603,0.4351
45685.346,5.2337,-1.3791,7.9368,53.9618,-65.2443,-87.1985,10.3932,-0.3615,0.1317,-3.3359,1.1374,0.3893
45774.658,8.6622,-2.2601,4.5657,22.7863,-23.1908,-43.916,10.2352,-0.3232,0.158,-3.4122,1.2824,0.5496
45866.416,8.7221,-3.79,8.2049,-87.2824,3.7939,-70.1756,10.2999,-0.3448,0.2227,-3.2977,1.145,0.4198
45957.071,8.7364,-3.6679,6.2848,-98.9618,56.5954,-42.1145,10.3525,-0.3735,0.1915,-3.3969,1.1527,0.6489
46048.226,8.7891,-3.213,3.3495,-16.7557,135.1527,52.6489,10.2951,-0.3472,0.2682,-3.3435,1.0305,0.4275
46136.279,5.7557,-2.217,4.1444,-4.1679,43.3588,73.4046,10.307,-0.3328,0.2777,-3.458,1.0305,0.4351
46284.651,4.4005,0.1532,5.0709,-0.8779,-39.1756,88.0076,10.3262,-0.3232,0.2179,-3.458,1.1908,0.374
46344.57,6.2728,-1.8579,5.3726,53.2595,-25.9847,108.6565,10.307,-0.3136,0.2346,-3.2901,0.9695,0.4962
46435.332,4.5562,-2.1691,5.7772,61.3053,-23.1145,6.4427,10.2568,-0.3496,0.1101,-3.0,0.7481,0.4046
46525.148,6.6655,-5.5138,7.6064,51.3893,-63.1221,-38.6641,10.3046,-0.316,0.2658,-3.1679,1.1374,0.3511
46614.062,6.1459,-1.4605,6.6798,65.3053,-145.7176,22.458,10.307,-0.3496,0.0958,-3.3359,1.2748,0.3817
46704.421,8.6838,-3.8499,5.9496,45.5267,-88.7405,34.4198,10.2615,-0.3472,0.0814,-3.1985,1.1145,0.2519
46795.879,7.7692,-1.5514,6.9336,10.3282,57.4046,-1.9389,10.3549,-0.2945,0.2993,-3.3435,1.0763,0.4733
46886.658,8.3055,-2.5762,6.9647,-29.8321,66.9847,6.5344,10.331,-0.3472,0.1772,-3.5267,1.1527,0.2977
46975.067,8.509,-2.6001,5.5929,-36.6947,-17.3588,55.5954,10.2759,-0.3472,0.2131,-3.0992,1.2672,0.3969
47067.769,8.5042,-3.984,2.8347,-3.6183,-15.5267,110.7863,10.2137,-0.3807,0.2538,-3.3817,1.1603,0.4122
47157.067,8.1834,-5.8347,4.2904,16.0763,-13.2824,129.687,10.2879,-0.4046,0.2011,-3.0763,1.2214,0.4885
47274.157,6.2824,-4.7501,7.8386,3.5802,17.313,123.9542,10.3022,-0.328,0.2035,-3.2137,1.3206,0.5573
47396.977,3.8834,-4.5586,6.9599,-9.4885,57.9695,176.6565,10.2759,-0.2801,0.1341,-3.1908,1.0916,0.4351
47454.541,0.3136,-4.8219,6.5505,-7.6565,71.7786,100.5954,10.3094,-0.3424,0.1413,-3.1679,1.458,0.4198
47547.982,-0.2418,-6.1268,4.9967,-3.374,54.3359,30.8626,10.3118,-0.4094,0.146,-3.3893,1.1908,0.5344
47635.428,-2.0614,-4.9871,3.7804,4.2824,13.5802,8.4809,10.2807,-0.3448,0.2586,-3.4427,1.229,0.4809
47725.212,-0.407,-6.9049,4.3814,28.8244,-10.6107,38.5954,10.3142,-0.3831,0.2705,-3.3206,1.1221,0.3893
47815.181,-0.2562,-6.596,5.6096,53.1374,-11.0153,64.6794,10.3214,-0.328,0.237,-3.4351,1.4275,0.4046
47904.693,-1.992,-4.0294,6.0023,43.1679,-25.8473,30.2977,10.3262,-0.2993,0.17,-3.3588,0.9847,0.4885
47995.214,-2.4469,-2.6049,5.7916,70.5343,-12.4962,-10.3817,10.3166,-0.3376,0.237,-3.2443,1.1832,0.3359
48083.813,-2.3942,-0.8835,7.7644,124.5191,-14.0458,6.4198,10.3813,-0.3112,0.2131,-3.4504,1.3511,0.5191
48174.394,-0.4022,-3.0215,10.082,40.6489,1.542,-18.5573,10.3214,-0.3208,0.237,-3.3206,1.2443,0.3282
48264.818,0.0359,-3.2537,9.7995,6.8702,6.3969,-34.0382,10.3286,-0.3496,0.0958,-3.4275,0.8473,0.4427
48355.837,-0.1556,-3.3327,9.6175,0.4962,2.2748,-24.7557,10.2232,-0.2634,0.2634,-3.4198,0.9008,0.3817
48475.824,-0.2945,-2.5091,8.8226,-12.2443,11.458,-9.8015,10.3406,-0.3687,0.2107,-3.2214,1.2366,0.542
48564.945,-0.2514,-2.2482,7.6279,-3.2977,6.5496,-10.6412,10.3645,-0.3376,0.1413,-3.3511,1.2824,0.5267
48657.98,-0.1101,-2.0662,8.339,-14.542,4.5267,-5.145,10.2975,-0.3663,0.1867,-3.3206,1.0916,0.4198
48744.264,-0.577,-2.1165,8.0182,-8.5115,4.8397,11.6107,10.3286,-0.3184,0.1245,-3.1679,1.2595,0.4275
48836.232,0.7302,-3.2585,9.2177,-28.1908,14.0916,37.1985,10.2711,-0.3615,0.1748,-3.3053,1.3282,0.5725
48924.493,-1.8196,-2.1835,6.0286,-39.4275,-37.6947,54.7023,10.2951,-0.3448,0.237,-3.1145,1.1374,0.6107
49014.728,-3.1364,-0.0455,6.3638,50.6412,-1.0916,-30.9771,10.3358,-0.3448,0.2442,-3.4962,1.1221,0.4351
49104.418,-2.2625,1.7885,9.2368,33.6565,-8.0076,-119.6412,10.2687,-0.3304,0.2251,-3.4733,1.0382,0.5115
49194.266,1.1325,-1.5874,8.5928,0.1221,29.7863,-156.8015,10.3166,-0.3711,0.0599,-3.2137,1.3435,0.5954
49283.762,5.1547,-3.486,10.4914,-47.5954,-31.4198,-158.5725,10.319,-0.3184,0.1149,-3.2137,1.0992,0.4504
49404.372,5.5234,-8.1906,8.3007,-38.0382,36.8779,4.3511,10.3382,-0.3783,0.1987,-3.2366,1.084,0.313
49494.361,2.909,-4.2401,10.1514,-47.229,163.9008,186.9924,10.2735,-0.34,0.1413,-3.3588,1.1908,0.458
49614.969,-0.8715,-4.5107,6.8642,-57.7252,14.4885,147.5038,10.3382,-0.3567,0.1413,-3.1908,1.3893,0.5267
49674.527,-2.2194,-2.6001,5.9951,-96.3893,-19.5191,96.3893,10.3286,-0.3639,0.1796,-3.2137,1.1069,0.374
49766.98,-2.5187,-1.0319,5.3391,-45.0763,-30.6336,108.8092,10.2615,-0.3472,0.1077,-3.4198,0.9389,0.4656
49854.491,-4.0031,-2.6887,5.4157,-0.4809,-23.5267,53.1069,10.3406,-0.2969,0.0982,-3.3511,1.2824,0.3664
49944.283,-4.8291,-1.4437,9.3829,41.0458,-9.9237,-24.0458,10.3525,-0.3855,0.2203,-3.3969,1.0382,0.4427
50034.851,-3.6392,-1.2546,10.1562,-11.2977,-41.1069,-107.0992,10.343,-0.3328,0.1508,-3.1832,1.0153,0.4351
50126.209,-1.5897,-2.6935,8.3079,-22.3817,10.6947,-152.6412,10.2903,-0.3089,0.1748,-3.0916,1.1679,0.4962
50215.079,-0.4214,-4.1372,6.1699,-3.4504,40.4962,-138.9466,10.2544,-0.3639,0.3136,-3.2901,0.9924,0.374
50304.251,-0.1724,-5.2648,6.62,-32.6718,58.8779,-83.5725,10.3022,-0.3543,0.2107,-3.1603,1.2519,0.5344
50394.261,-0.0838,-6.6272,5.9879,22.9542,48.4046,-52.084,10.3238,-0.3065,0.2418,-3.2595,1.2672,0.3664
50514.32,-0.316,-7.7788,5.2098,25.145,53.9924,-25.1908,10.307,-0.3304,0.2179,-3.3053,1.084,0.5496
50604.642,0.8045,-8.5832,6.7684,31.458,54.0076,17.855,10.3046,-0.3591,0.0599,-3.3588,0.9847,0.313
50694.495,-0.0551,-8.1235,7.1467,-19.7405,26.626,64.626,10.3669,-0.3376,0.1245,-3.2824,0.8855,0.313
50784.154,-1.2617,-6.7325,4.9273,-38.4427,-16.2214,91.9466,10.2663,-0.2921,0.2322,-3.3969,1.2443,0.4733
50874.489,-2.4493,-6.1938,4.798,-59.2443,-36.855,85.5649,10.2592,-0.3687,0.2705,-3.4427,1.1221,0.4275
50965.003,-3.0191,-4.5657,5.8826,-34.7328,-69.7634,78.9389,10.4148,-0.3424,0.2059,-3.1679,1.2214,0.4046
51054.218,-3.292,-3.0119,3.7493,-28.5725,-99.626,68.0763,10.3118,-0.3089,0.2322,-3.4427,1.3206,0.3588
51144.778,-1.8148,-3.1627,6.2776,18.4351,-82.2672,39.8397,10.3262,-0.4094,0.17,-3.2061,1.3588,0.4046
51234.886,-2.4181,-0.4573,9.4978,63.1527,-73.7863,-5.6794,10.2759,-0.3496,0.1628,-3.2672,1.1832,0.542
51324.228,-1.4198,-0.7614,10.6877,32.4275,-36.9008,-39.5802,10.3022,-0.3543,0.1652,-3.2519,0.8473,0.4504
51413.991,-3.8355,0.8188,9.4236,52.8321,5.9084,-77.8931,10.3717,-0.395,0.2538,-3.2214,1.1985,0.3282
51534.549,-0.7542,-1.8914,9.5074,7.8779,10.0611,-93.6031,10.3717,-0.3759,0.1341,-3.0916,1.2443,0.2595
51624.205,-1.3096,-1.1564,8.8729,-10.5802,0.7405,-85.5038,10.3238,-0.3783,0.1604,-3.4046,1.2137,0.542
51774.972,0.3376,-2.2003,8.7963,-43.6489,26.5802,-76.0076,10.3262,-0.3472,0.2298,-3.2061,0.9313,0.542
51803.612,0.6225,-4.0438,7.8793,-87.145,7.3969,-75.3511,10.3046,-0.3376,0.2107,-3.4122,1.3206,0.4198
51895.42,2.988,-8.6024,5.6838,-126.7557,21.2519,-43.8397,10.331,-0.3041,0.1221,-3.2137,0.8779,0.3359
51983.785,3.3806,-10.4483,3.6751,-77.1908,-0.5038,48.3282,10.2687,-0.2993,0.2059,-3.4198,1.1679,0.5115
52074.467,1.4868,-8.4827,2.4876,17.7405,-11.7405,80.3435,10.2807,-0.3639,0.1437,-3.1603,0.9847,0.5191
52165.316,0.486,-5.6695,4.2617,50.6412,-3.0916,83.6412,10.3406,-0.3232,0.17,-3.1832,1.1908,0.5115
52254.376,-1.2139,-4.0701,4.0677,41.5573,-50.8855,75.6031,10.2903,-0.3807,0.3184,-3.4122,1.0229,0.3435
52345.046,-1.3192,-4.0606,6.4165,51.4198,-53.626,29.3664,10.2615,-0.3687,0.2083,-3.2977,1.3511,0.5496
52434.874,-2.1404,-2.9975,9.3182,40.4046,-52.9008,-21.3969,10.331,-0.3184,0.1748,-3.374,1.2519,0.6641
52554.244,-2.0901,-0.9673,9.9814,46.2214,-62.7328,-42.1221,10.2759,-0.3711,0.17,-3.2672,0.8397,0.4046
52644.695,-1.7238,-1.719,7.9918,31.8779,-17.8244,-44.0611,10.2927,-0.3065,0.2418,-3.1756,1.2519,0.3588
52740.489,0.3472,-2.9712,7.7788,-0.0534,37.2901,-61.7481,10.3286,-0.3041,0.1987,-3.1298,1.0382,0.313
52824.566,0.3831,-0.7254,8.1594,-11.771,-107.9771,-155.0382,10.2807,-0.3687,0.2298,-3.3893,1.229,0.5115
52914.121,2.6647,-2.1141,7.2927,43.9847,8.5878,-115.2977,10.2975,-0.3711,0.1987,-3.4351,1.3359,0.5649
53006.503,3.5195,-0.1963,7.2233,43.6489,-27.9008,-75.0611,10.2687,-0.3591,0.2155,-3.4198,0.9542,0.4198
53094.519,3.9313,1.1827,7.865,35.7176,-34.0076,-94.5802,10.3022,-0.3112,0.1987,-3.3206,1.2595,0.4809
53185.498,4.1659,0.1772,7.3789,-12.1298,-5.0611,-48.3817,10.3214,-0.3735,0.2155,-3.2977,1.1145,0.3359
53274.112,5.6886,-0.8906,6.6008,-12.2214,-48.3588,-14.458,10.2807,-0.3807,0.2346,-3.1908,1.1908,0.4809
53368.445,12.2463,-1.1971,7.3191,-18.7176,222.084,-37.9542,10.2663,-0.3735,0.1844,-3.1603,1.0,0.458
53454.135,4.2401,-1.3096,9.4547,8.9618,43.0916,32.6641,10.252,-0.3879,0.1987,-3.2519,1.374,0.3969
53574.807,6.3566,1.7262,3.2609,14.0534,-250.1374,-26.3359,10.2687,-0.3112,0.2107,-3.1069,1.0229,0.3435
53665.39,10.0628,-1.6137,0.4836,11.0687,-74.0763,48.7099,10.3621,-0.3424,0.2203,-3.3817,1.1832,0.3206
53755.104,10.1083,-0.4932,1.7765,25.0382,83.1221,-52.2443,10.2735,-0.3543,0.1676,-3.2366,0.9466,0.3893
53843.954,9.4308,0.1389,3.8211,-12.084,-39.7405,-0.8397,10.3118,-0.3352,0.1317,-3.4122,1.1832,0.3435
53935.276,9.3518,-0.7015,2.2458,-1.1908,-7.542,0.3664,10.3717,-0.2705,0.17,-3.5115,1.3969,0.3588
54024.365,8.0996,1.9896,1.1971,31.4122,-0.3969,30.3282,10.2041,-0.3903,0.2825,-3.0992,0.8855,0.4198
54113.621,9.2081,-0.2514,2.6073,-8.0687,2.3969,-4.0458,10.3406,-0.3328,0.2203,-3.4198,1.0076,0.5115
54204.441,9.8617,-0.486,2.2075,-1.4885,-2.5115,-1.9542,10.2448,-0.34,0.3304,-3.2214,1.3435,0.2443
54295.173,8.9232,-0.1317,2.8443,8.7405,-26.2977,4.4275,10.3477,-0.3735,0.17,-3.2977,1.3359,0.374
54384.24,8.6814,-0.2945,3.0311,27.7023,-19.5725,6.0,10.2304,-0.3591,0.1484,-3.3053,1.1527,0.3893
54474.27,9.5193,-0.1317,1.9393,14.4962,4.7939,2.8626,10.3238,-0.3208,0.079,-3.4198,1.1298,0.2748
54564.568,10.1059,-0.3041,1.8747,7.9084,-16.8779,2.1679,10.2831,-0.3472,0.0599,-3.1908,1.0382,0.3435
54655.985,9.912,0.1125,2.5379,-40.687,0.4504,-13.2366,10.3046,-0.3807,0.1987,-3.2366,0.9618,0.3511
54773.293,10.3358,-0.0192,2.5857,-109.1756,-15.9542,-33.7023,10.2807,-0.2849,0.1173,-3.3282,1.1069,0.5725
54864.974,9.6486,-0.103,2.5714,5.5649,-17.3588,4.0229,10.3118,-0.3998,0.1796,-3.1908,1.0305,0.458
54954.306,9.8665,-0.3065,1.9201,-0.8244,0.0992,-0.8015,10.3382,-0.3448,0.1748,-3.374,1.1298,0.5191
55044.232,9.7851,-0.2059,2.0446,-28.2061,5.1527,-7.9008,10.3669,-0.328,0.2203,-3.2901,1.1603,0.313
55167.694,9.9886,-0.51,2.0255,-21.8473,27.9389,-10.2824,10.331,-0.3783,0.146,-3.2977,0.9924,0.4809
55223.414,9.924,-0.419,1.7669,-1.6336,-6.7634,0.458,10.2927,-0.3519,0.2394,-3.4427,1.3435,0.4885
55315.153,9.754,-0.3759,1.913,-1.6412,-2.8244,0.0229,10.2855,-0.3376,0.1748,-3.2137,1.1374,0.4656
55405.663,9.8474,-0.3759,1.9297,-1.6183,-1.0763,-0.6947,10.3142,-0.3687,0.2442,-3.3664,1.229,0.6183
55494.724,9.7372,-0.316,2.0782,-1.3817,-0.4198,-0.7481,10.2568,-0.3448,0.1676,-3.2519,1.0763,0.3282
55583.383,9.8976,-0.3304,1.9393,-1.5267,-0.5573,-0.7786,10.3094,-0.395,0.2179,-3.2443,1.1374,0.3664
55673.145,9.7947,-0.3328,2.047,-1.313,-0.542,-0.4351,10.2951,-0.316,0.1867,-3.3282,1.145,0.458
55766.737,9.9,-0.2586,1.9896,-1.5344,-0.7557,-0.5954,10.3573,-0.3807,0.1987,-3.2214,1.1145,0.4351
55855.592,9.73,-0.3184,1.9393,-1.5267,-0.9389,-0.6183,10.3406,-0.3065,0.2107,-3.4198,1.1374,0.6336
55945.765,9.8402,-0.3472,1.9537,-1.4809,-0.8626,-0.542,10.2999,-0.2825,0.2155,-3.0534,1.313,0.5267
56064.855,9.7564,-0.3687,1.9824,-1.4275,-0.6947,-0.687,10.3238,-0.2945,0.1508,-3.3588,0.9847,0.3817
56154.357,9.8785,-0.2586,1.9968,-1.5038,-0.7252,-0.4275,10.3932,-0.3759,0.158,-3.2901,1.1603,0.3053
56244.669,9.7659,-0.3472,2.0327,-1.1756,-0.3359,-1.3282,10.2903,-0.3256,0.2825,-3.3206,1.0458,0.5344
56337.022,9.9383,-0.3496,1.9728,-1.4504,-0.8702,-0.0153,10.3046,-0.3304,0.1413,-3.542,0.8931,0.5191
56424.127,9.7037,-0.3903,1.9441,-1.4733,-0.6336,-0.8092,10.2951,-0.3807,0.2059,-3.458,1.1145,0.5115
56517.213,9.8426,-0.17,1.8603,-1.3511,-0.9313,-0.2824,10.3765,-0.316,0.1508,-3.1908,1.3588,0.4122
56606.093,9.7252,-0.407,1.9393,-1.6107,-0.6641,-0.5802,10.2137,-0.3448,0.2035,-3.3359,0.7939,0.3969
56696.297,9.8402,-0.3089,1.9154,-1.229,-1.0992,-0.8779,10.2496,-0.3089,0.1125,-3.3969,0.8397,0.5267
56786.676,9.754,-0.4453,1.9537,-1.229,-0.4351,-0.1603,10.3453,-0.3855,0.1077,-3.3282,1.1603,0.5573
56874.091,9.7252,-0.2945,2.0399,-1.3588,-0.9084,-1.1069,10.3046,-0.4022,0.158,-3.3969,1.1679,0.5725
56965.818,9.8043,-0.3615,1.9752,-1.4427,-0.4046,-0.1603,10.331,-0.3543,0.2729,-3.4046,0.8931,0.2672
57053.354,9.8186,-0.328,2.0327,-1.2901,-0.7939,-0.8931,10.3382,-0.3783,0.1963,-3.3511,1.2366,0.5573
57144.261,9.7755,-0.3304,1.9656,-1.5115,-0.6107,-0.2901,10.3262,-0.3496,0.2346,-3.3359,1.1679,0.5344
57264.541,9.7875,-0.2394,1.9106,-1.3053,-0.8855,-1.0153,10.386,-0.3759,0.1197,-3.4885,1.2672,0.3893
57386.2,9.7444,-0.3735,1.9992,-1.313,-0.6641,-0.4733,10.3022,-0.2921,0.1508,-3.3206,1.0153,0.626
57443.167,9.7492,-0.3759,1.9297,-1.3282,-0.7328,-0.8244,10.2951,-0.3879,0.17,-3.3817,1.2977,0.5267
57534.773,9.8354,-0.3208,1.9106,-1.4962,-0.9313,-0.6336,10.2615,-0.3208,0.1796,-3.2214,1.1374,0.4351
57623.348,9.8258,-0.3615,1.9441,-1.3511,-0.7863,-0.5725,10.2855,-0.3256,0.1915,-3.229,1.2061,0.3817
57714.101,9.8306,-0.3783,1.9393,-1.5649,-0.8473,-0.7786,10.3046,-0.249,0.2634,-3.2977,1.2519,0.4046
57804.279,9.9024,-0.237,1.9273,-1.7023,-0.8702,-0.5191,10.3477,-0.3855,0.1915,-3.1527,1.229,0.5344
57894.385,9.8162,-0.3591,1.9441,-1.4809,-0.5191,-0.6031,10.2855,-0.3041,0.2155,-3.3511,1.3893,0.4275
57985.566,9.7779,-0.2514,1.9848,-1.3053,-0.8702,-0.626,10.2879,-0.3615,0.2107,-3.1221,0.9313,0.4351
58075.901,9.7971,-0.3472,1.9321,-1.5191,-0.4275,-0.4656,10.3142,-0.2969,0.2466,-3.229,1.2061,0.4198
58164.933,9.742,-0.3496,1.9106,-1.6183,-0.5573,-1.0229,10.3549,-0.3591,0.1221,-3.3817,1.2748,0.3969
58343.491,9.754,-0.3448,1.992,-1.2519,-0.084,-0.9237,10.3406,-0.3591,0.1724,-3.1756,1.2519,0.3588
58435.109,9.8497,-0.2897,1.8986,-1.3282,-0.9389,-0.2519,10.307,-0.3926,0.249,-3.3817,1.084,0.313
58553.326,9.8234,-0.4166,1.7957,-1.2672,-0.3969,-0.6031,10.3382,-0.3328,0.1867,-3.4046,1.1679,0.458
58644.981,9.8952,-0.2322,1.9992,-1.5115,-0.4885,-0.4275,10.2903,-0.3112,0.1915,-3.1832,1.2901,0.4351
58736.172,9.8569,-0.395,1.9417,-1.3817,-0.7863,-0.5115,10.2783,-0.3591,0.2059,-3.1374,1.0458,0.5267
58825.976,9.8545,-0.2083,1.8986,-1.3511,-0.6641,-0.542,10.2975,-0.3735,0.1772,-3.1679,1.1908,0.4809
58914.265,9.7947,-0.407,1.9249,-1.5038,-0.3053,-0.6565,10.3046,-0.3136,0.2514,-3.2366,1.084,0.5725
59004.177,9.8952,-0.2466,1.9393,-1.5496,-0.9695,-0.4733,10.307,-0.3998,0.2538,-3.4198,1.2748,0.4275
59094.134,9.809,-0.3879,1.8914,-1.4427,-0.8779,-0.374,10.3645,-0.3974,0.2203,-3.2672,1.2061,0.5344
59184.974,9.8952,-0.249,1.9441,-1.4351,-0.5878,-0.7634,10.3693,-0.3615,0.1676,-3.374,1.1374,0.4122
59277.888,9.7707,-0.3759,1.8842,-1.4962,-0.7099,-0.3435,10.2807,-0.3328,0.1221,-3.4275,1.0687,0.4122
59365.464,9.8665,-0.2969,1.9249,-1.3588,-0.5267,-0.7176,10.3549,-0.3328,0.237,-3.0916,1.229,0.4656
59454.04,9.7899,-0.316,1.8579,-1.5344,-0.6794,-0.3053,10.4148,-0.3591,0.249,-3.3206,1.2672,0.542
59544.211,9.7947,-0.3903,1.9417,-1.2519,-0.6183,-0.9542,10.2615,-0.3926,0.2227,-3.2061,0.9847,0.458
59634.181,9.8737,-0.3089,1.913,-1.5649,-0.8168,-0.3893,10.3142,-0.3328,0.0982,-3.3053,1.084,0.4351
59723.854,9.7707,-0.3089,1.8962,-1.2977,-0.3664,-0.4885,10.319,-0.3831,0.1532,-3.2443,1.5573,0.3817
59844.467,9.8067,-0.3352,1.9321,-1.5496,-0.6565,-0.2672,10.2975,-0.3184,0.2155,-3.1603,1.0763,0.3969
59934.576,9.7755,-0.3496,1.8986,-1.229,-0.4122,-0.9313,10.331,-0.3472,0.2466,-3.2443,1.1374,0.4962
60054.795,9.8665,-0.3089,1.9225,-1.6031,-0.5802,-0.2595,10.3166,-0.3352,0.249,-3.3817,0.9771,0.4122
60114.698,9.8258,-0.3496,1.8316,-1.3206,-0.4962,-0.7405,10.3286,-0.431,0.1245,-3.3359,1.3588,0.4809
