timestamp,right_hand_Accel_X,right_hand_Accel_Y,right_hand_Accel_Z,right_hand_Gyro_X,right_hand_Gyro_Y,right_hand_Gyro_Z,left_hand_Accel_X,left_hand_Accel_Y,left_hand_Accel_Z,left_hand_Gyro_X,left_hand_Gyro_Y,left_hand_Gyro_Z,right_leg_Accel_X,right_leg_Accel_Y,right_leg_Accel_Z,right_leg_Gyro_X,right_leg_Gyro_Y,right_leg_Gyro_Z,left_leg_Accel_X,left_leg_Accel_Y,left_leg_Accel_Z,left_leg_Gyro_X,left_leg_Gyro_Y,left_leg_Gyro_Z
266.408,0.5599,9.4373,3.2255,0.21,-1.26,1.47,0.7609,-9.5378,-1.9334,0.63,-1.82,-0.98,-0.0335,-0.1772,8.4946,-1.374,-0.6107,-0.5954,-9.3063,-0.103,-0.4357,-3.3664,1.0,0.542
358.517,0.5121,9.466,3.2351,0.56,-1.54,1.19,0.7705,-9.5426,-1.8664,0.63,-1.54,-1.19,-0.0455,-0.158,8.5497,-1.1908,-0.4885,-0.5802,-9.323,-0.091,-0.3687,-3.2901,1.2672,0.4275
418.954,0.4929,9.4612,3.2447,1.26,-1.47,0.84,0.7705,-9.5474,-1.9621,0.49,-1.54,-1.19,-0.0168,-0.1173,8.5688,-1.3817,-0.4809,-0.5038,-9.3134,-0.1125,-0.3615,-3.313,1.0916,0.4733
508.073,0.5456,9.4134,3.2351,0.84,-1.4,0.91,0.7753,-9.5091,-1.943,-0.63,-1.82,-1.12,0.0431,-0.0814,8.667,-1.2748,-0.7863,-0.5725,-9.2273,-0.1293,-0.3711,-3.1908,1.3511,0.4962
597.908,0.5312,9.3847,3.216,0.42,-1.33,0.98,0.7609,-9.5426,-1.9669,0.7,-1.61,-1.05,0.0,-0.1317,8.5736,-1.5344,-0.6412,-0.6183,-9.2392,-0.1341,-0.4621,-3.4427,1.1298,0.4351
656.429,0.5168,9.4086,3.216,0.14,-1.12,1.19,0.7657,-9.5378,-2.1153,1.89,-1.47,-0.91,-0.0096,-0.1437,8.5497,-1.1908,-0.9237,-0.4504,-9.2536,-0.1484,-0.4334,-3.2366,1.4427,0.4962
746.901,0.5168,9.4373,3.2112,0.35,-1.26,1.12,0.7753,-9.5139,-1.986,-0.7,-1.96,-0.98,0.0192,-0.1149,8.6263,-1.3282,-0.5573,-0.5496,-9.2416,-0.0718,-0.3304,-3.458,1.1908,0.3053
836.765,0.5025,9.4708,3.2447,1.12,-1.47,0.98,0.7657,-9.5234,-1.9286,1.05,-1.82,-0.91,0.0551,-0.1077,8.5569,-1.4046,-0.3969,-0.4809,-9.2009,-0.1006,-0.498,-3.0229,1.084,0.4275
896.587,0.536,9.3033,3.2016,1.61,-1.33,0.07,0.7705,-9.5378,-2.0291,2.1,-1.4,-1.05,0.0527,-0.1293,8.4515,-1.4962,-0.5802,-0.542,-9.2727,-0.1197,-0.5602,-3.3435,1.145,0.4351
986.62,0.5168,9.3559,3.259,1.33,-1.26,0.7,0.7705,-9.533,-1.9908,0.77,-1.75,-1.05,-0.0048,-0.1173,8.5305,-1.2214,-0.5496,-0.5038,-9.2847,-0.1413,-0.4477,-3.2901,1.2061,0.5344
1047.733,0.5312,9.4181,3.2495,1.75,-1.47,0.7,0.7418,-9.6,-1.8473,-0.42,-1.89,-1.12,-0.0335,-0.1293,8.5688,-1.1756,-0.6336,-0.4427,-9.2249,-0.1628,-0.51,-3.3969,1.1069,0.4656
1138.324,0.5168,9.4516,3.2925,4.69,-1.82,-0.14,0.7322,-9.5378,-1.9621,-1.26,-1.75,-1.19,-0.0192,-0.1891,8.5521,-1.3893,-0.6336,-0.5344,-9.2799,-0.182,-0.5794,-3.0534,1.3206,0.374
1227.862,0.5073,9.4277,3.283,2.87,-1.54,0.07,0.7896,-9.5282,-2.0148,-1.05,-1.89,-1.05,0.067,-0.1532,8.4874,-1.313,-0.626,-0.4198,-9.2488,-0.0862,-0.4812,-3.374,1.3282,0.4351
1288.135,0.5168,9.3894,3.2686,2.1,-1.47,0.7,0.7657,-9.5282,-1.919,-0.42,-1.75,-0.91,0.0192,-0.2011,8.5258,-1.3206,-0.4504,-0.6565,-9.2967,-0.1484,-0.34,-3.1985,1.0458,0.458
1378.974,0.5982,9.4181,3.3308,-2.03,-0.77,1.82,0.8183,-9.4995,-2.0913,2.59,-1.75,-0.49,0.0479,-0.1652,8.5856,-1.4733,-0.458,-0.4962,-9.2632,-0.1724,-0.3759,-3.3053,1.1756,0.3969
1467.982,0.5264,9.4325,3.2925,-1.54,-0.98,1.96,0.7801,-9.5043,-2.0195,0.63,-2.17,-0.98,0.0144,-0.1389,8.5736,-1.3588,-0.771,-0.4504,-9.2751,-0.0982,-0.4693,-3.0534,1.0,0.458
1528.178,0.3876,9.4708,3.2638,-4.41,-0.63,1.54,0.7944,-9.5139,-2.1153,1.4,-1.68,-1.05,-0.0048,-0.1125,8.5449,-1.2977,-0.5649,-0.4962,-9.2871,-0.0862,-0.4022,-3.1069,0.9695,0.4122
1616.317,0.5456,9.4134,3.2112,-2.03,-0.91,1.19,0.7753,-9.5426,-2.0483,0.98,-1.68,-0.98,-0.0096,-0.079,8.5162,-1.2443,-0.6183,-0.7099,-9.2703,-0.1532,-0.5746,-3.1679,1.0382,0.5115
1679.52,0.4642,9.4373,3.2016,-0.35,-1.12,0.98,0.7848,-9.5378,-2.0243,1.26,-1.61,-0.98,-0.0239,-0.1437,8.5186,-1.3664,-0.458,-0.6412,-9.2177,-0.091,-0.4166,-3.2901,1.0763,0.4427
1768.285,0.5025,9.4229,3.2207,0.07,-1.26,0.84,0.7705,-9.5234,-2.0387,1.68,-1.68,-0.84,0.0215,-0.1197,8.6,-1.3206,-0.6107,-0.6794,-9.256,-0.0982,-0.4214,-3.374,1.1145,0.4504
1856.869,0.4977,9.4229,3.2351,0.42,-1.4,0.84,0.7513,-9.5091,-2.0243,1.12,-1.82,-0.98,-0.0072,-0.103,8.5808,-1.4962,-0.6336,-0.5115,-9.2847,-0.103,-0.4741,-3.2595,1.1298,0.2901
1917.176,0.5073,9.4038,3.2351,0.35,-1.47,0.98,0.7609,-9.5426,-1.9956,0.91,-1.68,-1.05,-0.0575,-0.0742,8.4874,-1.4275,-0.6336,-0.5573,-9.2919,-0.1317,-0.5339,-3.2824,1.1679,0.5267
2006.984,0.5264,9.4373,3.2542,0.35,-1.33,0.91,0.7657,-9.5378,-2.0195,1.4,-1.61,-0.98,-0.0168,-0.1197,8.5401,-1.2901,-0.5267,-0.5802,-9.2392,-0.1173,-0.4166,-3.2901,1.2748,0.6107
2096.307,0.4977,9.4325,3.2351,0.35,-1.33,1.19,0.7753,-9.5186,-2.01,0.98,-1.75,-1.05,0.0718,-0.0886,8.6119,-1.4885,-0.5802,-0.458,-9.2847,-0.0934,-0.4453,-3.1679,1.1221,0.3053
2156.673,0.5216,9.4229,3.216,0.21,-1.12,0.91,0.7657,-9.533,-1.9669,0.77,-1.68,-1.12,0.0048,-0.1101,8.5688,-1.4504,-0.7634,-0.4962,-9.3087,-0.103,-0.4621,-3.2901,1.0916,0.4427
2248.755,0.5264,9.4134,3.216,0.35,-1.19,0.77,0.7944,-9.5139,-2.0052,1.47,-1.75,-1.05,-0.0215,-0.1556,8.5832,-1.4962,-0.5038,-0.5649,-9.2416,-0.1221,-0.4501,-3.3359,1.1832,0.542
2337.945,0.469,9.4612,3.2686,0.49,-1.26,0.98,0.7466,-9.5378,-1.9813,1.05,-1.54,-1.05,0.0503,-0.1604,8.5904,-1.3893,-0.4656,-0.7252,-9.2488,-0.1293,-0.4046,-3.2748,1.2672,0.3893
2398.45,0.4642,9.4612,3.2399,0.42,-1.4,1.12,0.7609,-9.5186,-2.0195,1.82,-1.47,-0.98,0.0239,-0.1293,8.5281,-1.3435,-0.3664,-0.3969,-9.2775,-0.1077,-0.3711,-3.3053,1.1985,0.5267
2488.164,0.4786,9.4277,3.2638,-0.21,-1.19,1.12,0.7848,-9.5474,-1.9956,1.61,-1.75,-0.98,0.0215,-0.1221,8.5688,-1.3435,-0.5115,-0.5115,-9.2823,-0.1604,-0.3304,-3.1069,1.1908,0.1908
2549.946,0.4977,9.4134,3.2447,0.07,-1.19,0.91,0.7705,-9.5043,-1.9956,1.26,-1.75,-1.12,0.0431,-0.1173,8.4946,-1.1832,-0.4656,-0.7634,-9.2392,-0.1604,-0.4166,-3.3664,1.145,0.4122
2637.866,0.5408,9.3942,3.2734,0.77,-1.4,1.26,0.7848,-9.5139,-1.9813,1.54,-1.68,-0.98,0.0575,-0.1149,8.5162,-1.2214,-0.7328,-0.6641,-9.2416,-0.1389,-0.3879,-3.2443,1.2519,0.5038
2727.777,0.6269,9.3703,3.2255,0.56,-1.19,1.61,0.7896,-9.5139,-2.1775,1.89,-1.54,-0.91,-0.0192,-0.1221,8.5449,-1.1985,-0.4275,-0.5191,-9.2584,-0.0646,-0.3352,-3.1908,1.1756,0.3282
2788.633,0.4642,9.3894,3.1777,5.39,-2.24,2.17,0.7466,-9.5426,-2.1009,1.33,-1.68,-1.19,-0.0263,-0.1197,8.5162,-1.2748,-0.5649,-0.3664,-9.2177,-0.0575,-0.407,-3.1145,1.2137,0.458
2880.374,0.5216,9.3512,3.2112,5.32,-2.03,1.89,0.7801,-9.5521,-1.986,1.4,-1.54,-1.12,-0.0407,-0.1341,8.4731,-1.4504,-0.6031,-0.3893,-9.3254,-0.0958,-0.4836,-3.1908,1.0687,0.4504
2968.067,0.5264,9.3751,3.2447,3.78,-1.75,1.33,0.7322,-9.5282,-2.0722,1.26,-1.47,-1.12,0.0455,-0.1437,8.6479,-1.2901,-0.4733,-0.5573,-9.3206,-0.1077,-0.4645,-3.2214,1.1374,0.4962
3027.91,0.5216,9.3703,3.2207,1.54,-1.54,0.98,0.7513,-9.533,-2.0004,1.12,-1.75,-1.05,0.0048,-0.1676,8.5162,-1.2214,-0.6565,-0.4046,-9.3015,-0.0886,-0.4812,-3.4733,1.0382,0.2748
3118.032,0.5168,9.4277,3.216,1.4,-1.54,0.91,0.7753,-9.533,-2.0004,0.63,-1.61,-0.98,0.0527,-0.1365,8.4946,-1.4275,-0.5344,-0.5878,-9.268,-0.0694,-0.4262,-3.1985,1.3969,0.313
3208.751,0.5168,9.4181,3.2447,0.56,-1.19,1.05,0.7848,-9.5378,-1.9621,1.19,-1.61,-1.05,-0.012,-0.1006,8.5736,-1.4656,-0.6489,-0.458,-9.3039,-0.1245,-0.407,-3.1527,1.2366,0.4733
3268.223,0.4929,9.4134,3.2351,0.84,-1.4,1.05,0.7848,-9.533,-2.0148,1.12,-1.68,-1.05,-0.0263,-0.1484,8.5114,-1.313,-0.6183,-0.6489,-9.2703,-0.1604,-0.5339,-3.2901,1.0153,0.3435
3356.537,0.5025,9.4277,3.2399,0.7,-1.4,0.84,0.7609,-9.5378,-1.9525,0.56,-1.75,-1.05,-0.0455,-0.103,8.5425,-1.3664,-0.5649,-0.4275,-9.3446,-0.1389,-0.4764,-3.2672,1.0916,0.3893
3419.288,0.5121,9.3847,3.2255,0.84,-1.26,1.05,0.7753,-9.5186,-1.986,1.33,-1.61,-1.05,0.0646,-0.1006,8.4252,-1.2824,-0.6641,-0.5496,-9.2033,-0.1676,-0.4046,-3.3664,1.2595,0.3435
3506.838,0.5121,9.4181,3.2351,0.63,-1.33,1.05,0.7609,-9.5282,-1.9956,1.05,-1.68,-1.05,0.0263,-0.1053,8.5425,-1.5191,-0.6031,-0.626,-9.2632,-0.1317,-0.5148,-3.1679,1.2748,0.4427
3596.547,0.4929,9.4229,3.2399,0.35,-1.26,1.19,0.7418,-9.5282,-2.1344,0.56,-1.75,-0.98,0.0144,-0.0982,8.5569,-1.3435,-0.5878,-0.3359,-9.2464,-0.1245,-0.4357,-3.1756,1.3969,0.4733
3656.344,0.5647,9.4756,3.1777,-1.96,-0.98,1.47,0.7657,-9.5426,-1.9813,1.75,-1.54,-1.05,-0.0072,-0.1221,8.6718,-1.5878,-0.4656,-0.458,-9.3015,-0.1245,-0.5076,-3.145,0.9847,0.4656
3746.49,0.4834,9.4469,3.1968,-0.07,-1.19,0.98,0.7753,-9.5091,-2.0387,0.84,-1.68,-0.98,0.0694,-0.1389,8.5473,-1.3206,-0.5267,-0.4962,-9.3111,-0.1628,-0.3926,-3.458,1.0229,0.542
3835.893,0.4881,9.4325,3.2064,0.7,-1.19,0.91,0.7657,-9.5091,-1.9908,1.05,-1.82,-0.98,0.0311,-0.0814,8.6024,-1.4351,-0.4885,-0.5496,-9.2608,-0.1293,-0.4238,-3.2366,1.1298,0.4427
3896.163,0.5264,9.4229,3.2112,0.91,-1.19,1.05,0.7705,-9.5378,-1.9669,0.91,-1.75,-0.98,0.0718,-0.1484,8.5976,-1.2595,-0.313,-0.5725,-9.2392,-0.1125,-0.4836,-3.2366,1.2672,0.4046
3988.567,0.5312,9.4038,3.2495,0.7,-1.26,0.91,0.7801,-9.5521,-2.0339,1.05,-1.68,-1.05,-0.0024,-0.1437,8.6072,-1.0534,-0.6183,-0.4275,-9.2033,-0.0982,-0.4357,-3.3511,1.1527,0.5115
4049.363,0.5073,9.4469,3.2303,0.7,-1.33,0.98,0.7848,-9.5234,-1.9669,0.7,-1.82,-0.98,0.0215,-0.0982,8.5305,-1.4504,-0.6336,-0.6794,-9.2703,-0.1317,-0.4741,-3.4198,1.1221,0.4656
4138.465,0.5168,9.4277,3.2207,1.4,-1.33,1.26,0.7896,-9.5282,-1.943,0.63,-1.75,-1.05,0.0383,-0.1125,8.5114,-1.313,-0.626,-0.4198,-9.2416,-0.1245,-0.4932,-3.1832,0.9695,0.1832
4228.15,0.5168,9.3942,3.2255,0.91,-1.26,0.91,0.7657,-9.5282,-1.9573,1.26,-1.89,-0.91,0.0192,-0.0982,8.5425,-1.4351,-0.4962,-0.4504,-9.2416,-0.1173,-0.3759,-3.4962,1.0458,0.4885
4288.341,0.5168,9.4325,3.216,1.05,-1.33,0.98,0.7753,-9.533,-1.9478,2.17,-1.68,-0.98,0.0048,-0.1317,8.5258,-1.4427,-0.5725,-0.5802,-9.2344,-0.0886,-0.4477,-3.2366,1.0763,0.2519
4378.691,0.5168,9.5809,3.216,0.49,-1.33,1.4,0.7609,-9.5426,-2.0339,0.63,-1.54,-1.19,0.0192,-0.1365,8.5473,-1.3511,-0.4962,-0.4275,-9.2823,-0.1365,-0.5507,-3.374,1.1298,0.4733
4468.954,0.4738,9.4086,3.2542,0.63,-1.33,0.56,0.7561,-9.5282,-1.9478,0.77,-1.75,-0.98,0.0263,-0.2011,8.5712,-1.145,-0.5191,-0.5115,-9.3422,-0.0886,-0.5148,-3.1298,1.1603,0.4809
4527.781,0.4929,9.4181,3.2495,-0.07,-1.26,0.7,0.7705,-9.5282,-1.9765,0.91,-1.61,-1.12,0.0287,-0.1173,8.5497,-1.2443,-0.6336,-0.5802,-9.1961,-0.1053,-0.3711,-3.2137,1.2595,0.4198
4616.138,0.4834,9.4325,3.2638,0.07,-1.33,1.19,0.7801,-9.5378,-2.01,0.77,-1.82,-0.98,0.0407,-0.1604,8.4683,-1.3435,-0.8015,-0.4656,-9.3206,-0.1365,-0.4549,-3.2061,0.9771,0.4351
4706.051,0.5073,9.4469,3.2495,0.77,-1.33,1.05,0.7801,-9.5474,-1.9669,1.26,-1.68,-1.05,-0.0407,-0.1484,8.4922,-1.3359,-0.6031,-0.6107,-9.2608,-0.1101,-0.3591,-3.1908,1.1374,0.5725
4765.993,0.5264,9.4373,3.216,0.28,-1.33,0.98,0.7513,-9.5139,-1.9956,1.82,-2.03,-0.77,-0.0096,-0.1748,8.6574,-1.6336,-0.5878,-0.6718,-9.244,-0.1317,-0.3591,-3.4198,1.0992,0.2061
4855.792,0.4834,9.4612,3.1585,1.4,-1.33,1.75,0.7657,-9.5474,-2.0387,0.84,-1.68,-0.98,-0.0311,-0.1101,8.5329,-1.3435,-0.6641,-0.4809,-9.2751,-0.1006,-0.395,-3.2824,1.1374,0.5725
4916.343,0.5121,9.4134,3.1872,1.19,-1.47,1.05,0.7992,-9.5043,-1.986,1.12,-1.82,-0.91,-0.0096,-0.1652,8.5736,-1.3435,-0.7176,-0.4733,-9.2536,-0.1317,-0.3926,-3.5038,1.145,0.2672
5005.905,0.5216,9.4038,3.2112,1.26,-1.47,1.05,0.7705,-9.5378,-1.9908,1.4,-1.75,-0.98,0.0096,-0.1365,8.5066,-1.2214,-0.5649,-0.5878,-9.268,-0.0838,-0.3998,-3.2137,1.1756,0.3893
5096.444,0.4977,9.4229,3.2255,0.28,-1.26,1.05,0.7657,-9.5186,-2.0052,0.77,-1.82,-0.98,0.0144,-0.1149,8.6095,-1.3282,-0.7023,-0.4962,-9.2967,-0.0934,-0.4238,-3.2595,1.0992,0.4962
5156.102,0.4881,9.4469,3.2495,0.42,-1.26,1.05,0.7753,-9.5234,-1.9813,0.91,-1.75,-1.05,-0.0503,-0.1317,8.5186,-1.1908,-0.5344,-0.7481,-9.3134,-0.1293,-0.4094,-3.1374,1.1603,0.4656
5246.702,0.5025,9.4373,3.216,0.84,-1.33,0.91,0.7657,-9.5378,-1.9956,1.05,-1.61,-1.12,-0.0527,-0.1389,8.6143,-1.3969,-0.4046,-0.3588,-9.244,-0.079,-0.3903,-3.229,1.145,0.3893
5336.021,0.5073,9.4086,3.2399,0.56,-1.26,0.98,0.7609,-9.5282,-2.0578,0.77,-1.75,-0.98,0.0215,-0.1389,8.6072,-1.3359,-0.6183,-0.5191,-9.232,-0.1101,-0.4214,-3.3435,1.0992,0.4275
5396.012,0.4929,9.4277,3.2447,0.42,-1.33,0.91,0.7848,-9.5474,-1.9908,0.7,-1.82,-0.98,0.0622,-0.1101,8.5497,-1.3969,-0.4656,-0.4656,-9.3374,-0.1173,-0.3831,-3.1069,1.0687,0.2595
5486.035,0.4786,9.4469,3.2207,0.07,-1.12,1.05,0.7657,-9.5282,-1.9813,1.54,-1.89,-0.98,-0.0096,-0.1963,8.6742,-1.3588,-0.6641,-0.6412,-9.2344,-0.0359,-0.4525,-3.3282,1.2061,0.2977
5578.58,0.5025,9.4516,3.2399,0.77,-1.4,0.98,0.7609,-9.5378,-2.0195,1.4,-1.82,-1.05,0.0622,-0.1365,8.5018,-1.3588,-0.5878,-0.6489,-9.2536,-0.1125,-0.5004,-3.458,1.2061,0.5573
5638.019,0.5025,9.4181,3.2351,0.56,-1.4,0.84,0.7801,-9.5426,-1.986,0.49,-1.89,-1.05,-0.0168,-0.2155,8.5545,-1.3664,-0.3969,-0.7405,-9.1937,-0.0694,-0.4166,-3.2595,1.1298,0.5344
5727.435,0.4499,9.4038,3.2207,0.77,-1.33,0.98,0.7609,-9.5521,-1.9286,0.42,-1.82,-1.12,-0.0215,-0.1772,8.5114,-1.3817,-0.5954,-0.6336,-9.2416,-0.1221,-0.4118,-3.3206,1.0,0.4427
5788.291,0.5216,9.4373,3.2207,0.21,-1.33,0.84,0.7848,-9.5186,-1.9956,0.98,-1.75,-1.05,0.0215,-0.079,8.5904,-1.2595,-0.6489,-0.3893,-9.2105,-0.1077,-0.4286,-3.374,1.1985,0.2519
5876.862,0.5025,9.4325,3.2303,0.63,-1.33,1.05,0.7609,-9.5234,-2.0195,0.84,-1.75,-0.98,0.0575,-0.0742,8.5712,-1.3893,-0.5802,-0.4046,-9.2608,-0.1628,-0.5267,-3.0687,1.1221,0.4198
5966.109,0.5073,9.4277,3.2303,0.77,-1.4,1.19,0.7609,-9.5426,-1.986,0.21,-1.82,-1.05,-0.0168,-0.146,8.5234,-1.626,-0.6107,-0.5725,-9.3063,-0.1389,-0.5315,-3.1298,1.0763,0.1985
6026.002,0.5408,9.4229,3.2542,1.33,-1.47,1.12,0.7848,-9.5234,-1.9813,1.68,-1.54,-1.05,0.0263,-0.1101,8.6167,-1.3359,-0.5573,-0.6336,-9.2488,-0.17,-0.4046,-3.5115,1.2214,0.5344
6116.16,0.4929,9.3942,3.2303,0.84,-1.26,1.19,0.7753,-9.5378,-2.0435,0.63,-1.54,-0.91,-0.0168,-0.1556,8.4084,-1.3969,-0.5115,-0.458,-9.2727,-0.0934,-0.4764,-3.3282,1.1069,0.4046
6207.584,0.5408,9.4229,3.2303,0.42,-1.19,1.26,0.8183,-9.5139,-1.9669,0.63,-1.96,-0.91,0.012,-0.1221,8.4611,-1.4122,-0.5725,-0.6031,-9.2656,-0.0694,-0.4238,-3.2137,1.2061,0.5038
6267.403,0.4834,9.4229,3.2495,0.63,-1.26,1.05,0.7753,-9.5282,-2.0004,1.96,-1.82,-0.91,0.0192,-0.1053,8.5617,-1.2748,-0.6565,-0.4885,-9.2656,-0.1197,-0.4501,-3.1756,1.2824,0.4275
6358.322,0.4977,9.4325,3.2255,0.77,-1.33,0.98,0.7513,-9.5234,-2.0195,1.61,-1.61,-0.91,-0.0383,-0.1915,8.6239,-1.2137,-0.6947,-0.7939,-9.2536,-0.1317,-0.4812,-3.1374,1.229,0.3893
6416.803,0.4834,9.4229,3.2399,0.7,-1.26,0.98,0.7657,-9.5378,-1.9573,0.35,-1.89,-1.12,-0.0311,-0.1269,8.4659,-1.2672,-0.4122,-0.5267,-9.1961,-0.1221,-0.4621,-3.2366,1.0,0.2901
6508.59,0.4834,9.4134,3.2064,0.7,-1.33,0.84,0.7609,-9.5426,-1.9908,0.56,-1.68,-1.19,-0.0024,-0.0934,8.4707,-1.3359,-0.6489,-0.7405,-9.232,-0.1389,-0.4118,-3.1679,1.2061,0.4809
6597.398,0.5168,9.4086,3.2351,0.49,-1.33,0.98,0.7418,-9.5282,-2.0626,1.12,-1.4,-1.05,-0.012,-0.1317,8.576,-1.3206,-0.5878,-0.542,-9.2416,-0.146,-0.4214,-3.1985,1.2061,0.5267
6658.105,0.5025,9.4038,3.2255,-0.14,-1.19,0.98,0.7896,-9.5234,-2.0674,0.49,-1.75,-1.12,0.0335,-0.1365,8.5066,-1.2519,-0.5267,-0.6794,-9.323,-0.0982,-0.3735,-3.4046,1.2748,0.4046
6747.987,0.5025,9.4181,3.2255,-0.7,-1.19,1.12,0.7657,-9.5378,-2.01,1.47,-1.82,-0.98,0.0215,-0.1532,8.6431,-1.3588,-0.5954,-0.6641,-9.2703,-0.1053,-0.419,-3.1985,1.1832,0.4351
6835.814,0.4977,9.4421,3.2207,0.35,-1.26,1.05,0.7609,-9.5474,-2.0148,0.7,-1.82,-1.05,0.0287,-0.1796,8.5258,-1.3664,-0.4733,-0.4656,-9.2584,-0.0982,-0.4405,-3.2443,1.0382,0.4198
6895.821,0.5216,9.4229,3.2447,0.91,-1.47,0.98,0.7561,-9.5234,-2.0291,0.77,-1.82,-1.05,0.0,-0.1532,8.6167,-1.229,-0.5267,-0.5573,-9.2081,-0.1006,-0.3807,-3.374,1.3053,0.3435
6986.334,0.4881,9.3942,3.2542,0.91,-1.33,0.98,0.7896,-9.533,-1.943,1.4,-1.68,-0.91,0.0383,-0.146,8.4922,-1.4427,-0.6641,-0.6794,-9.2991,-0.1389,-0.4501,-3.3588,1.1756,0.2519
7077.878,0.5503,9.4038,3.2255,1.19,-1.47,0.84,0.7705,-9.5521,-2.0291,1.82,-1.54,-0.98,0.0144,-0.1628,8.5736,-1.458,-0.5344,-0.4046,-9.2368,-0.1221,-0.4477,-3.2672,0.9466,0.4351
7136.471,0.5168,9.4469,3.216,0.42,-1.33,1.05,0.7705,-9.5186,-1.9573,0.56,-1.89,-0.98,-0.0096,-0.1125,8.5976,-1.3664,-0.4656,-0.3664,-9.1961,-0.1269,-0.4166,-3.4733,1.3053,0.5802
7227.974,0.4977,9.4229,3.2303,0.35,-1.26,0.91,0.7657,-9.533,-2.0052,0.7,-1.68,-1.05,0.0024,-0.1173,8.4874,-1.3435,-0.6489,-0.5802,-9.2823,-0.146,-0.4046,-3.0992,1.2137,0.4962
7288.287,0.5025,9.4038,3.2303,0.35,-1.47,0.84,0.7705,-9.5043,-2.0483,1.05,-1.54,-0.98,0.0479,-0.1772,8.6095,-1.4504,-0.6183,-0.4809,-9.2919,-0.1173,-0.4405,-3.2901,1.0,0.4275
7377.246,0.5073,9.4181,3.2399,0.28,-1.26,0.84,0.7657,-9.5234,-1.9669,0.63,-1.75,-1.12,-0.0144,-0.1628,8.5521,-1.4122,-0.5267,-0.4962,-9.3637,-0.1508,-0.4764,-3.374,1.0611,0.4427
7466.192,0.4929,9.4134,3.2686,0.35,-1.26,1.05,0.7561,-9.5282,-1.986,1.89,-1.68,-0.91,0.0359,-0.1891,8.6359,-1.4656,-0.7786,-0.5725,-9.2871,-0.091,-0.3496,-3.1298,1.1679,0.374
7527.549,0.5264,9.4325,3.2351,0.56,-1.26,1.05,0.7274,-9.5474,-2.053,1.61,-1.75,-0.91,0.0718,-0.1269,8.5234,-1.374,-0.6794,-0.5191,-9.3015,-0.0503,-0.4405,-3.0382,1.1374,0.2824
7616.055,0.4642,9.4469,3.2351,0.7,-1.26,1.05,0.7753,-9.5378,-1.9956,1.05,-1.75,-0.98,0.0311,-0.1365,8.5114,-1.3969,-0.7023,-0.5344,-9.2177,-0.0958,-0.4693,-3.3664,1.0,0.4351
7706.782,0.4881,9.4373,3.2255,1.05,-1.4,1.26,0.7657,-9.5426,-1.9382,1.19,-1.54,-1.12,-0.0239,-0.17,8.4755,-1.374,-0.5344,-0.5344,-9.2871,-0.1341,-0.486,-3.1527,1.0458,0.4351
7766.038,0.5168,9.4181,3.2255,0.77,-1.33,0.91,0.7705,-9.5234,-1.9717,0.56,-1.68,-1.05,0.091,-0.1484,8.6167,-1.3282,-0.6107,-0.4198,-9.2703,-0.091,-0.4645,-3.2366,1.2214,0.542
7856.675,0.536,9.3942,3.2255,0.28,-1.26,1.19,0.7896,-9.5186,-1.9525,-0.07,-1.89,-0.98,0.0215,-0.0934,8.4922,-1.4046,-0.7176,-0.5191,-9.2488,-0.0934,-0.3903,-3.1374,1.0763,0.3664
7946.721,0.5264,9.4277,3.2112,0.42,-1.33,0.98,0.7466,-9.5234,-1.9956,0.98,-1.68,-0.98,-0.0192,-0.1963,8.5497,-1.4275,-0.6794,-0.4351,-9.2201,-0.1532,-0.4741,-3.1298,1.1145,0.3588
8006.918,0.4977,9.4516,3.2399,0.7,-1.4,1.12,0.7561,-9.5378,-2.0818,1.61,-1.54,-1.12,0.0239,-0.1365,8.509,-1.3282,-0.7481,-0.687,-9.2895,-0.103,-0.4764,-3.2824,1.0763,0.2977
8096.733,0.4977,9.4277,3.2351,0.7,-1.33,0.91,0.7609,-9.533,-1.9765,0.77,-1.89,-1.05,0.0192,-0.182,8.5545,-1.2977,-0.2901,-0.4427,-9.3111,-0.0862,-0.3519,-2.9542,1.3053,0.3511
8158.79,0.5073,9.4325,3.2207,0.77,-1.26,0.91,0.7753,-9.5282,-1.9238,1.26,-1.75,-0.98,0.0096,-0.1317,8.5042,-1.3817,-0.5038,-0.5954,-9.1698,-0.1245,-0.3998,-3.0992,1.0992,0.5802
8246.963,0.5168,9.4086,3.2399,0.84,-1.4,0.91,0.7609,-9.5521,-2.0291,2.03,-1.54,-0.98,0.0359,-0.1293,8.4922,-1.4885,-0.4656,-0.5267,-9.2296,-0.1149,-0.4645,-3.2061,1.1527,0.3511
8338.271,0.5121,9.4134,3.2112,0.21,-1.33,1.12,0.7896,-9.5378,-1.943,1.05,-1.82,-1.05,0.0431,-0.1484,8.5545,-1.2366,-0.7481,-0.5954,-9.2751,-0.1221,-0.2873,-3.1298,1.1832,0.2672
8397.887,0.5073,9.4373,3.2351,0.77,-1.4,1.19,0.7753,-9.5043,-1.8999,0.07,-1.82,-0.98,0.0072,-0.1365,8.6191,-1.4427,-0.6641,-0.6183,-9.3015,-0.1269,-0.4166,-3.2519,0.9466,0.4656
8491.36,0.4546,9.4277,3.2207,0.98,-1.47,0.91,0.7466,-9.5426,-1.9813,0.91,-1.68,-1.05,0.0168,-0.1484,8.4563,-1.1832,-0.4427,-0.4275,-9.2799,-0.1437,-0.4357,-3.2443,1.0534,0.5191
8576.371,0.5025,9.399,3.2255,1.19,-1.47,0.77,0.7609,-9.5282,-2.01,0.21,-1.75,-1.12,0.0862,-0.103,8.5497,-1.3588,-0.687,-0.5115,-9.2296,-0.0718,-0.4669,-3.1221,1.1374,0.4427
8635.788,0.5408,9.4038,3.2303,0.35,-1.26,1.05,0.7609,-9.5378,-1.9717,0.63,-1.75,-1.12,0.0527,-0.1245,8.5401,-1.3893,-0.7099,-0.5496,-9.2632,-0.1437,-0.395,-3.1374,1.3588,0.3206
8725.793,0.4786,9.4181,3.2447,0.35,-1.26,1.19,0.7801,-9.5474,-2.0148,1.4,-1.68,-0.98,-0.0479,-0.1939,8.5832,-1.4198,-0.5802,-0.4275,-9.2536,-0.1125,-0.5219,-2.9695,1.145,0.5191
8786.463,0.4594,9.4277,3.259,0.21,-1.4,1.26,0.7466,-9.5186,-1.9956,0.84,-1.89,-0.84,-0.0503,-0.1556,8.4803,-1.3969,-0.5725,-0.542,-9.256,-0.1173,-0.4645,-3.2137,1.145,0.4427
8876.258,0.5025,9.4181,3.2351,0.35,-1.26,1.12,0.7705,-9.533,-1.9956,0.42,-1.75,-1.12,-0.0144,-0.1053,8.4827,-1.2366,-0.6107,-0.4733,-9.2536,-0.1508,-0.5243,-3.1679,1.0458,0.3817
9027.121,0.4977,9.399,3.2255,0.42,-1.26,0.91,0.7801,-9.533,-2.0052,1.33,-1.68,-1.05,0.0335,-0.1628,8.5617,-1.2061,-0.6107,-0.5344,-9.2703,-0.1293,-0.4884,-3.3359,1.0992,0.3664
9116.054,0.4594,9.4086,3.2016,0.14,-1.26,0.77,0.7418,-9.5234,-2.01,0.98,-1.75,-1.12,0.0072,-0.1269,8.6095,-1.0,-0.6107,-0.7176,-9.2512,-0.0958,-0.3974,-3.1145,1.0687,0.5649
9205.937,0.5312,9.4373,3.2495,-0.42,-1.26,1.19,0.7609,-9.5282,-2.053,1.47,-1.61,-1.12,0.0551,-0.1484,8.5593,-1.2672,-0.6718,-0.5267,-9.2177,-0.1437,-0.3759,-3.3511,1.2977,0.4046
9265.832,0.4786,9.4277,3.2495,0.49,-1.33,1.05,0.7753,-9.5282,-2.0052,0.63,-1.75,-1.12,-0.0599,-0.1389,8.4731,-1.2214,-0.5573,-0.2672,-9.2632,-0.1101,-0.3759,-3.3282,1.1603,0.3359
9355.841,0.4929,9.4181,3.2303,0.84,-1.4,0.91,0.7657,-9.5378,-2.01,1.33,-1.54,-1.05,-0.0024,-0.1101,8.5665,-1.2519,-0.6641,-0.5573,-9.2799,-0.1341,-0.5267,-3.2748,1.1603,0.3511
9446.569,0.5312,9.3751,3.216,0.91,-1.4,0.77,0.7848,-9.5569,-1.9956,0.42,-1.68,-1.12,0.0311,-0.1293,8.6335,-1.3282,-0.7557,-0.4351,-9.2656,-0.1077,-0.4381,-3.3359,1.0153,0.4427
9505.814,0.5025,9.4325,3.2303,0.35,-1.4,1.19,0.7801,-9.5521,-2.0291,1.54,-1.68,-1.05,-0.0359,-0.1604,8.5473,-1.4275,-0.5191,-0.4351,-9.2536,-0.1413,-0.4214,-3.1985,1.2595,0.4427
9596.239,0.4881,9.4421,3.2495,0.42,-1.4,1.05,0.7418,-9.533,-2.0387,1.75,-1.68,-0.91,0.0,-0.1532,8.5018,-1.4427,-0.7099,-0.4275,-9.2536,-0.1077,-0.3376,-3.2214,1.1756,0.3588
9657.073,0.5168,9.4277,3.2207,1.26,-1.4,1.05,0.7609,-9.533,-2.0004,1.12,-1.82,-0.98,0.0192,-0.1197,8.6287,-1.4427,-0.4885,-0.5954,-9.2943,-0.1125,-0.4142,-3.4046,1.1298,0.4351
9746.11,0.5073,9.4134,3.2495,1.19,-1.4,0.84,0.7609,-9.5186,-1.943,1.89,-1.75,-0.91,0.0814,-0.0934,8.5545,-1.4122,-0.5267,-0.5344,-9.3039,-0.0982,-0.4262,-3.0611,1.1908,0.4427
9835.649,0.4977,9.5474,3.2542,-0.35,-1.33,1.75,0.7753,-9.5186,-2.0339,1.96,-1.54,-0.98,0.0287,-0.0934,8.5018,-1.2137,-0.6183,-0.6489,-9.2703,-0.1389,-0.4357,-3.374,1.1679,0.6336
9896.487,0.4786,9.4181,3.2064,0.21,-1.33,1.19,0.7848,-9.5043,-2.053,0.63,-1.54,-1.19,0.0551,-0.1867,8.5114,-1.2824,-0.5115,-0.5267,-9.2177,-0.158,-0.4214,-3.2748,1.0763,0.374
9986.204,0.5121,9.4181,3.2303,0.56,-1.4,1.19,0.7705,-9.5426,-2.0004,0.91,-1.75,-1.05,-0.0599,-0.1628,8.5569,-1.2901,-0.6031,-0.5725,-9.323,-0.1939,-0.3783,-3.3817,1.1527,0.374
10076.376,0.4738,9.4708,3.2351,0.63,-1.33,1.19,0.7466,-9.533,-2.0578,1.12,-1.61,-1.05,-0.0215,-0.1604,8.5377,-1.4046,-0.5802,-0.5115,-9.2273,-0.0814,-0.4166,-3.3206,1.0076,0.3053
10137.536,0.536,9.4086,3.2303,0.98,-1.33,0.84,0.7753,-9.5426,-2.0722,0.77,-1.75,-0.91,0.0551,-0.0838,8.5688,-1.4122,-0.7634,-0.3893,-9.2632,-0.1149,-0.4645,-3.3206,1.2443,0.3817
10225.957,0.5503,9.4038,3.216,1.61,-1.47,1.05,0.7896,-9.5426,-1.9621,0.35,-1.96,-1.12,0.0503,-0.1413,8.4803,-1.4351,-0.4046,-0.626,-9.2823,-0.0838,-0.3687,-3.4504,1.0534,0.2595
10316.147,0.5216,9.4277,3.2064,0.56,-1.33,1.19,0.7801,-9.4899,-2.0339,1.33,-1.61,-0.98,0.0144,-0.1077,8.5856,-1.4046,-0.5573,-0.4046,-9.2632,-0.158,-0.4597,-3.313,1.2061,0.5038
10376.313,0.5073,9.4421,3.2255,1.61,-1.4,1.12,0.7561,-9.533,-2.1009,1.68,-1.68,-1.12,0.0646,-0.1317,8.5545,-1.374,-0.5115,-0.6336,-9.2871,-0.103,-0.4334,-3.3206,1.0076,0.3053
10468.087,0.5025,9.4086,3.2207,1.26,-1.4,1.12,0.7705,-9.533,-1.9143,0.07,-1.89,-0.91,0.0048,-0.1652,8.6119,-1.1756,-0.2748,-0.5267,-9.2344,-0.1341,-0.3783,-3.3969,0.9618,0.3359
10527.771,0.4929,9.4325,3.216,0.84,-1.26,1.12,0.7609,-9.533,-1.9621,0.49,-1.75,-1.05,0.0407,-0.1508,8.5712,-1.313,-0.6336,-0.5878,-9.2273,-0.0718,-0.407,-3.4504,0.9924,0.4351
10615.785,0.5312,9.4038,3.2351,0.35,-1.26,1.05,0.7466,-9.5282,-2.0243,0.21,-1.68,-1.19,-0.0551,-0.1173,8.6455,-1.4504,-0.7328,-0.7023,-9.2392,-0.103,-0.419,-2.9847,1.2443,0.4504
10705.579,0.5025,9.4181,3.216,0.42,-1.19,0.98,0.7896,-9.5282,-1.9669,0.28,-1.82,-0.98,-0.0455,-0.1628,8.4922,-1.3282,-0.5573,-0.4656,-9.256,-0.0862,-0.3903,-3.1603,1.1221,0.4885
10765.668,0.5168,9.4373,3.2399,0.14,-1.26,1.19,0.7657,-9.5139,-2.01,1.4,-1.75,-1.05,0.0215,-0.146,8.5832,-1.3359,-0.626,-0.2748,-9.3206,-0.1173,-0.5243,-3.2137,1.1527,0.4427
10855.806,0.469,9.4421,3.2351,0.42,-1.26,1.12,0.7705,-9.5139,-2.0387,1.26,-1.75,-0.98,0.012,-0.1437,8.5928,-1.3053,-0.4122,-0.5344,-9.2751,-0.0742,-0.486,-3.374,1.2519,0.5267
10946.595,0.5216,9.4325,3.2351,0.98,-1.4,0.91,0.7801,-9.5617,-1.9765,0.7,-1.89,-0.98,0.0455,-0.1844,8.5736,-1.3664,-0.5725,-0.5344,-9.2344,-0.1149,-0.4094,-3.3511,1.2595,0.4504
11006.428,0.5456,9.4134,3.2016,0.84,-1.33,0.91,0.7609,-9.5234,-1.9573,1.54,-1.61,-1.12,0.0359,-0.1724,8.5066,-1.374,-0.6489,-0.6489,-9.2703,-0.1365,-0.3567,-3.1221,1.2672,0.2901
11095.669,0.5025,9.4134,3.2207,0.77,-1.4,0.91,0.7848,-9.5234,-1.986,1.05,-1.75,-1.05,-0.0431,-0.1269,8.5258,-0.9847,-0.4427,-0.6107,-9.2177,-0.1221,-0.3974,-3.4122,1.0153,0.4504
11156.57,0.4786,9.4181,3.216,0.56,-1.47,0.91,0.7753,-9.5186,-1.9382,1.12,-1.89,-0.84,0.0168,-0.1772,8.4707,-1.4885,-0.4504,-0.4198,-9.1602,-0.1197,-0.4645,-3.0763,1.3588,0.2595
11246.296,0.4977,9.4421,3.216,0.56,-1.33,1.05,0.7657,-9.5426,-1.9573,1.19,-1.68,-0.98,0.0144,-0.1748,8.6503,-1.5038,-0.5802,-0.5038,-9.2249,-0.1437,-0.4788,-3.2137,1.1298,0.3359
11335.646,0.4881,9.4421,3.2112,0.91,-1.4,1.19,0.7801,-9.5139,-1.986,0.84,-1.82,-0.98,0.0359,-0.0718,8.6119,-1.5191,-0.5038,-0.4427,-9.2632,-0.1101,-0.395,-3.1603,1.0,0.5878
11397.636,0.5025,9.4134,3.2303,1.12,-1.33,0.98,0.7848,-9.5521,-1.9765,1.33,-1.68,-1.05,0.0455,-0.1389,8.5329,-1.3588,-0.4733,-0.4733,-9.2392,-0.1053,-0.4094,-3.2443,1.1603,0.4122
11485.466,0.5121,9.4229,3.2351,0.49,-1.26,1.05,0.7609,-9.5282,-2.0004,0.98,-1.75,-1.05,-0.0096,-0.1724,8.5688,-1.313,-0.458,-0.5878,-9.2751,-0.1173,-0.4238,-3.4122,1.084,0.3359
11576.861,0.4977,9.4325,3.2495,-0.14,-1.19,1.26,0.7753,-9.5569,-1.9669,0.84,-1.82,-0.91,0.0551,-0.1844,8.5521,-1.2824,-0.5878,-0.6183,-9.2584,-0.0862,-0.3831,-3.1527,1.1374,0.3588
11635.609,0.4738,9.4516,3.2303,0.28,-1.26,1.19,0.7609,-9.5186,-1.9573,1.12,-1.89,-1.05,0.0192,-0.1556,8.5449,-1.5115,-0.7863,-0.687,-9.2632,-0.1173,-0.498,-3.2519,1.145,0.6336
11727.444,0.5168,9.4134,3.2207,0.7,-1.4,0.98,0.7609,-9.5378,-2.01,1.4,-1.68,-0.98,0.0287,-0.1245,8.5305,-1.3511,-0.6336,-0.6107,-9.2871,-0.0527,-0.4118,-3.1221,1.0458,0.6031
11816.763,0.4834,9.4373,3.2399,-0.14,-1.26,1.4,0.7513,-9.5186,-1.9573,1.12,-1.75,-1.05,-0.0287,-0.1269,8.5401,-1.5725,-0.458,-0.4198,-9.244,-0.1221,-0.4238,-3.3511,0.9771,0.5267
11877.939,0.4881,9.4469,3.216,0.56,-1.4,0.98,0.7513,-9.5474,-2.0052,1.4,-1.61,-1.05,-0.0383,-0.1053,8.576,-1.1527,-0.4046,-0.6336,-9.2488,-0.1652,-0.407,-3.1221,1.1145,0.4275
11965.853,0.5264,9.4038,3.2399,0.63,-1.26,0.98,0.7801,-9.5282,-2.0243,1.4,-1.61,-0.98,-0.0503,-0.1437,8.4779,-1.2061,-0.8092,-0.5267,-9.2871,-0.1221,-0.4357,-3.1985,1.1145,0.4198
12026.368,0.5073,9.4277,3.2255,0.77,-1.33,0.98,0.7466,-9.5186,-1.9669,0.63,-1.89,-0.98,-0.0192,-0.0934,8.5449,-1.1527,-0.6565,-0.4885,-9.2392,-0.0982,-0.486,-3.1527,1.2901,0.4885
12116.069,0.5025,9.4181,3.2207,0.63,-1.33,1.05,0.7705,-9.5234,-2.01,1.26,-1.68,-1.05,-0.0215,-0.146,8.5401,-1.3511,-0.5725,-0.5573,-9.2871,-0.1437,-0.4836,-3.1756,1.2214,0.5573
12207.217,0.4834,9.4373,3.2255,0.35,-1.33,1.12,0.7753,-9.5234,-2.0052,0.7,-1.68,-1.05,-0.0311,-0.1556,8.5688,-1.2443,-0.4885,-0.6947,-9.2823,-0.1125,-0.395,-3.3206,1.1832,0.5191
12268.446,0.5073,9.4277,3.2207,0.63,-1.33,1.12,0.7657,-9.5186,-1.9525,0.49,-1.82,-1.05,-0.0024,-0.1101,8.576,-1.5954,-0.7405,-0.7176,-9.268,-0.1006,-0.4764,-3.2137,1.0916,0.4351
12355.669,0.5121,9.4229,3.2303,0.56,-1.4,1.05,0.7753,-9.5521,-1.9717,1.26,-1.82,-1.05,0.0048,-0.1269,8.5425,-1.2672,-0.5649,-0.6641,-9.2296,-0.1125,-0.4741,-3.3282,1.4198,0.4962
12447.588,0.5025,9.4229,3.2207,0.49,-1.26,1.12,0.7561,-9.5234,-2.0004,1.19,-1.82,-1.05,0.0239,-0.1317,8.4922,-1.2672,-0.5267,-0.4198,-9.3134,-0.1867,-0.4142,-3.1679,1.2443,0.374
12507.588,0.5025,9.4325,3.2399,0.91,-1.4,1.12,0.7609,-9.533,-2.0004,0.98,-1.68,-1.05,0.0311,-0.1317,8.5617,-1.3588,-0.6031,-0.7481,-9.3063,-0.1197,-0.4501,-3.2977,1.1069,0.4275
12597.457,0.4881,9.3655,3.2064,0.77,-1.33,0.7,0.7657,-9.533,-1.9478,1.05,-1.68,-1.05,-0.0024,-0.0862,8.5832,-1.2748,-0.5191,-0.6183,-9.2943,-0.1484,-0.3783,-3.2443,1.229,0.3588
12687.572,0.5168,9.4038,3.2447,0.35,-1.19,1.26,0.7561,-9.5186,-1.8999,2.31,-1.68,-1.05,0.0575,-0.1389,8.5665,-1.4504,-0.5115,-0.5191,-9.256,-0.1053,-0.3496,-3.3817,1.1679,0.4351
12747.532,0.5264,9.4086,3.2447,0.35,-1.26,1.05,0.7705,-9.5139,-1.9813,0.63,-1.89,-1.05,-0.0838,-0.1341,8.5305,-1.3206,-0.8626,-0.5649,-9.3087,-0.0958,-0.3926,-3.2214,1.2366,0.4504
12835.482,0.4977,9.4181,3.2207,0.63,-1.26,0.98,0.7609,-9.5378,-2.0052,1.4,-1.61,-1.05,-0.0215,-0.2203,8.4851,-1.374,-0.5267,-0.626,-9.3302,-0.1245,-0.4286,-3.1374,1.0534,0.2595
12896.155,0.4834,9.4086,3.2064,0.35,-1.33,0.98,0.7609,-9.5043,-2.0435,1.54,-1.4,-1.05,0.0287,-0.1293,8.5305,-1.2672,-0.542,-0.6183,-9.2296,-0.1173,-0.431,-3.4885,1.1985,0.5115
12985.607,0.5025,9.4516,3.2207,0.77,-1.33,0.91,0.7466,-9.5378,-1.9525,1.54,-1.47,-0.98,0.0431,-0.1508,8.5808,-1.4656,-0.5573,-0.7481,-9.2632,-0.1125,-0.4357,-3.2366,0.9924,0.374
13076.031,0.4881,9.4277,3.2399,0.77,-1.33,0.98,0.7896,-9.5474,-1.9382,0.49,-1.89,-0.98,0.0479,-0.1149,8.5258,-1.3359,-0.687,-0.4275,-9.2273,-0.1724,-0.4573,-3.0763,1.2901,0.3282
13135.615,0.536,9.6287,3.2925,-0.7,-1.19,1.96,0.7561,-9.5234,-1.9813,1.82,-1.61,-0.98,0.0694,-0.1269,8.4108,-1.2901,-0.5344,-0.626,-9.268,-0.0718,-0.5004,-3.2824,1.1069,0.3359
13225.616,0.5025,9.4086,3.2542,0.42,-1.33,1.05,0.7801,-9.4947,-2.0339,-0.84,-2.45,-0.77,-0.0886,-0.1532,8.4922,-1.4885,-0.6183,-0.5573,-9.2847,-0.0766,-0.3256,-3.5115,1.0687,0.2824
13315.445,0.5025,9.4373,3.2495,0.7,-1.26,1.19,0.7848,-9.5186,-1.9334,1.54,-1.68,-0.91,0.0311,-0.1389,8.5353,-1.2824,-0.7405,-0.5496,-9.244,-0.1221,-0.4357,-3.145,1.1756,0.4351
13375.961,0.5073,9.4181,3.2255,0.91,-1.4,1.12,0.7609,-9.5617,-2.0052,0.49,-1.82,-1.05,0.0048,-0.0646,8.588,-1.458,-0.6947,-0.4885,-9.2799,-0.1101,-0.4717,-3.3053,1.1374,0.5115
13465.593,0.5073,9.4277,3.2207,0.7,-1.26,0.98,0.7609,-9.5282,-2.0578,0.63,-1.75,-1.12,-0.0168,-0.182,8.5329,-1.374,-0.5573,-0.3206,-9.2584,-0.1221,-0.3998,-3.1985,1.3282,0.5725
13526.413,0.4929,9.4181,3.2495,0.63,-1.4,1.12,0.7466,-9.5426,-1.9621,0.77,-1.68,-1.19,0.0503,-0.0934,8.6431,-1.2214,-0.374,-0.374,-9.2584,-0.0503,-0.3926,-3.2443,1.1145,0.4046
13615.718,0.5073,9.4373,3.2542,0.49,-1.4,1.19,0.7561,-9.5282,-1.9813,1.61,-1.68,-0.91,-0.0862,-0.1413,8.5473,-1.2214,-0.6107,-0.626,-9.2512,-0.079,-0.4214,-3.374,1.0687,0.3435
13707.301,0.5264,9.3942,3.2112,0.63,-1.33,1.12,0.7561,-9.533,-1.9813,1.47,-1.75,-1.05,-0.0622,-0.0958,8.4013,-1.4198,-0.6489,-0.458,-9.2129,-0.182,-0.4405,-3.2061,1.0534,0.4198
13768.981,0.469,9.466,3.259,1.19,-1.68,0.91,0.7657,-9.5426,-1.9382,0.49,-1.75,-1.12,0.0239,-0.1437,8.5856,-1.2748,-0.458,-0.8779,-9.2009,-0.1197,-0.5698,-3.2748,1.2137,0.4198
13857.982,0.5503,9.5091,3.2064,1.12,-1.47,1.54,0.7418,-9.533,-1.9669,1.26,-1.54,-1.05,-0.012,-0.1245,8.4779,-1.3206,-0.6107,-0.3435,-9.2751,-0.1197,-0.5076,-3.1221,1.0992,0.4046
13947.875,0.5216,9.4564,3.1825,0.28,-1.33,1.68,0.7848,-9.5139,-1.9717,-0.07,-1.68,-1.12,0.0622,-0.146,8.6287,-1.2977,-0.5878,-0.6107,-9.2584,-0.1437,-0.3807,-3.2366,1.084,0.4656
14006.249,0.5264,9.4325,3.2064,0.49,-1.33,1.19,0.7944,-9.533,-1.9525,-0.49,-1.96,-1.05,0.0551,-0.146,8.4707,-1.3969,-0.6031,-0.5191,-9.2632,-0.146,-0.4334,-3.1985,1.1069,0.5267
14096.189,0.5168,9.4708,3.1872,0.98,-1.47,1.26,0.7657,-9.5474,-1.9525,0.7,-1.61,-1.05,0.0383,-0.1317,8.4898,-1.3359,-0.6947,-0.3511,-9.2895,-0.1269,-0.5004,-3.4351,1.1145,0.3817
14186.024,0.4929,9.4756,3.2255,0.91,-1.33,1.05,0.7801,-9.5282,-1.9525,0.14,-1.89,-1.05,0.0048,-0.1724,8.5258,-1.3435,-0.2366,-0.7939,-9.3111,-0.0838,-0.3783,-3.2595,1.3053,0.4198
14247.043,0.4929,9.4134,3.2207,1.19,-1.4,0.84,0.7848,-9.5426,-2.0052,1.61,-1.61,-0.98,-0.0192,-0.1389,8.4228,-1.2901,-0.4809,-0.5725,-9.2344,-0.1101,-0.5028,-2.9466,1.0382,0.5191
14337.534,0.5312,9.4134,3.2207,0.56,-1.33,0.84,0.7657,-9.5282,-2.0387,1.33,-1.68,-0.98,-0.0192,-0.1197,8.4659,-1.3282,-0.687,-0.3969,-9.1961,-0.0958,-0.4836,-3.1756,1.1527,0.4427
14398.868,0.5791,9.4181,3.216,0.21,-1.33,0.98,0.7705,-9.5139,-1.9143,0.84,-1.96,-0.91,-0.0215,-0.1604,8.521,-1.4809,-0.7405,-0.7405,-9.2751,-0.103,-0.3879,-3.3435,1.0534,0.4427
14488.438,0.4977,9.4134,3.2255,0.42,-1.26,1.12,0.7609,-9.5426,-1.9669,1.47,-1.54,-1.05,-0.0144,-0.1389,8.5018,-1.4046,-0.5115,-0.4275,-9.3063,-0.1317,-0.4956,-3.2214,1.2748,0.4198
14578.262,0.5025,9.4469,3.2399,0.42,-1.33,1.26,0.7561,-9.5378,-2.0148,0.56,-1.54,-1.05,-0.0024,-0.1437,8.4683,-1.3206,-0.5878,-0.4504,-9.2751,-0.1173,-0.4573,-3.2519,1.2061,0.3435
14638.629,0.5121,9.4612,3.2351,0.91,-1.33,1.05,0.804,-9.533,-1.919,-0.77,-1.89,-1.12,-0.0407,-0.1317,8.6024,-1.2901,-0.6718,-0.5725,-9.2871,-0.0599,-0.316,-3.2137,1.1069,0.4504
14726.751,0.5216,9.4134,3.2255,1.33,-1.47,0.7,0.7657,-9.5474,-1.9765,1.05,-1.54,-1.12,-0.0096,-0.1413,8.4324,-1.4733,-0.6336,-0.7176,-9.2057,-0.1101,-0.4429,-3.1145,1.1679,0.4733
14816.816,0.5456,9.3559,3.2542,0.28,-1.26,0.91,0.7753,-9.5282,-2.0961,0.84,-1.89,-0.91,0.0,-0.158,8.5593,-1.4122,-0.6412,-0.5115,-9.2536,-0.1772,-0.4357,-3.2519,1.1603,0.3817
14876.41,0.5216,9.4229,3.216,-0.07,-1.19,1.26,0.7753,-9.533,-1.9573,0.49,-2.03,-0.91,0.0024,-0.1963,8.5712,-1.458,-0.3893,-0.7557,-9.3015,-0.1245,-0.419,-3.1603,1.0305,0.374
14965.826,0.5121,9.4564,3.2112,0.7,-1.33,1.12,0.7561,-9.533,-2.01,2.03,-1.68,-0.98,-0.0694,-0.1365,8.4922,-1.229,-0.5725,-0.2977,-9.2967,-0.1293,-0.3998,-3.1221,1.084,0.5496
15057.808,0.5025,9.4469,3.216,1.05,-1.33,0.91,0.7705,-9.5426,-2.077,1.4,-1.68,-1.05,-0.0168,-0.1652,8.4851,-1.2672,-0.4809,-0.6489,-9.2105,-0.1796,-0.3496,-3.2901,1.0763,0.4275
15116.293,0.5456,9.4181,3.2255,0.98,-1.47,0.7,0.7418,-9.5378,-1.9095,1.12,-1.89,-0.91,0.0096,-0.1915,8.5497,-1.3511,-0.4733,-0.6336,-9.2847,-0.1173,-0.4453,-3.5573,1.0992,0.313
15206.015,0.5216,9.3655,3.2112,0.7,-1.33,0.77,0.7609,-9.5378,-1.986,2.66,-1.68,-0.98,0.0335,-0.1915,8.5808,-1.2366,-0.6183,-0.5344,-9.2009,-0.1173,-0.4836,-3.3893,1.3969,0.5115
15267.335,0.5264,9.4229,3.2351,0.07,-1.19,1.05,0.7705,-9.5474,-2.0195,0.7,-1.75,-1.12,0.0359,-0.1508,8.4874,-1.3359,-0.6565,-0.4198,-9.2608,-0.0718,-0.4645,-3.1298,1.0534,0.5573
15356.722,0.5216,9.4899,3.2303,0.21,-1.26,1.4,0.7848,-9.5234,-1.8664,-0.91,-1.96,-1.12,-0.0168,-0.1317,8.5521,-1.3435,-0.5038,-0.4809,-9.2488,-0.1748,-0.498,-3.374,1.0611,0.5802
15506.573,0.5025,9.4181,3.2207,0.77,-1.26,0.98,0.7513,-9.5521,-1.9573,0.84,-1.54,-1.12,-0.0431,-0.1173,8.6024,-1.3664,-0.8092,-0.1679,-9.2727,-0.0982,-0.4453,-3.3893,1.0763,0.3969
15596.632,0.5599,9.3942,3.2112,0.28,-1.19,0.98,0.7657,-9.5234,-2.0865,0.7,-1.54,-1.12,-0.0527,-0.146,8.4659,-1.2748,-0.6489,-0.3511,-9.2608,-0.1245,-0.4094,-3.2443,1.1603,0.2595
15687.627,0.5503,9.4038,3.2351,0.49,-1.33,1.05,0.7657,-9.5426,-1.9956,2.52,-1.54,-0.91,0.0311,-0.1269,8.5138,-1.4885,-0.5191,-0.8855,-9.3134,-0.0742,-0.4717,-3.2977,1.1221,0.5115
15744.773,0.5312,9.4373,3.2112,0.28,-1.33,1.26,0.7609,-9.5186,-2.077,1.75,-1.61,-0.98,0.0311,-0.1484,8.5305,-1.229,-0.6565,-0.5649,-9.3302,-0.1221,-0.4693,-3.374,1.2748,0.458
15836.186,0.5551,9.4708,3.2207,0.84,-1.33,1.19,0.7848,-9.5378,-1.8951,0.49,-1.89,-1.05,-0.0072,-0.1269,8.5234,-1.2748,-0.7099,-0.458,-9.2536,-0.0958,-0.4788,-3.3206,1.0076,0.4809
15896.178,0.4881,9.4756,3.2303,1.4,-1.4,0.84,0.7753,-9.5378,-1.8808,2.38,-1.4,-1.12,0.0287,-0.1724,8.5617,-1.1374,-0.6031,-0.6947,-9.2991,-0.1341,-0.4693,-3.3817,1.1603,0.3664
15985.421,0.5216,9.3559,3.1729,0.7,-1.26,0.84,0.7848,-9.5426,-2.0148,1.05,-1.61,-1.05,0.0311,-0.1484,8.5545,-1.4351,-0.4809,-0.771,-9.3278,-0.1317,-0.3639,-3.374,1.0458,0.4962
16076.05,0.5791,9.399,3.2255,0.07,-1.26,1.12,0.7753,-9.5186,-1.9238,-0.28,-2.03,-0.98,0.0072,-0.1413,8.576,-1.5038,-0.5725,-0.5802,-9.2632,-0.103,-0.316,-3.3359,1.0611,0.5954
16136.457,0.5168,9.4516,3.2255,0.56,-1.4,1.19,0.7561,-9.5617,-1.9669,1.33,-1.4,-1.12,0.0503,-0.1221,8.442,-1.5115,-0.4885,-0.6336,-9.2296,-0.0982,-0.4405,-3.2443,1.0916,0.4504
16227.282,0.5073,9.4277,3.2255,0.84,-1.33,1.19,0.7753,-9.5378,-2.0722,1.19,-1.54,-1.12,0.0263,-0.0958,8.521,-1.3511,-0.4351,-0.7099,-9.2608,-0.0958,-0.407,-3.2137,1.0611,0.4046
16316.942,0.5264,9.4516,3.2303,0.84,-1.26,1.19,0.7801,-9.5234,-1.9478,0.21,-1.89,-1.05,0.0359,-0.1269,8.5856,-1.3282,-0.5344,-0.3969,-9.2895,-0.103,-0.4046,-3.1374,1.2824,0.6107
16375.38,0.5025,9.4038,3.2399,0.98,-1.33,0.84,0.7705,-9.5234,-1.9143,2.8,-1.61,-0.77,0.0287,-0.1149,8.4779,-1.2824,-0.5496,-0.4046,-9.2991,-0.1245,-0.3112,-3.458,1.1069,0.4504
16465.403,0.5216,9.3799,3.2112,0.49,-1.19,0.91,0.737,-9.5378,-2.0961,1.47,-1.68,-0.91,0.0622,-0.1508,8.4922,-1.3435,-0.3511,-0.6947,-9.2703,-0.0814,-0.4118,-3.1679,1.1832,0.4122
16555.309,0.5647,9.466,3.2399,0.21,-1.26,1.4,0.7801,-9.5234,-1.8903,0.07,-1.96,-0.98,0.079,-0.146,8.5545,-1.3206,-0.7557,-0.5573,-9.2895,-0.1221,-0.4405,-3.2748,0.7099,0.6031
16615.279,0.4977,9.4469,3.2255,1.05,-1.47,1.19,0.7513,-9.5474,-1.9717,1.54,-1.33,-1.05,0.0239,-0.0934,8.5018,-1.4198,-0.374,-0.5267,-9.2488,-0.1149,-0.498,-3.6718,1.0458,0.374
16707.434,0.4786,9.4421,3.2303,1.12,-1.4,0.91,0.7657,-9.5282,-2.0339,0.28,-1.4,-1.19,0.0192,-0.1652,8.5186,-1.5038,-0.3893,-0.5344,-9.256,-0.1293,-0.4357,-3.3588,1.1145,0.3817
16767.471,0.5551,9.4181,3.2255,0.77,-1.33,0.84,0.7801,-9.5282,-1.9382,-0.63,-2.03,-1.05,0.0192,-0.1532,8.5688,-1.2901,-0.6031,-0.6641,-9.2584,-0.1437,-0.3735,-3.0763,1.0763,0.4504
16857.043,0.5216,9.3703,3.2255,0.63,-1.47,0.77,0.7657,-9.5282,-1.9956,1.61,-1.54,-1.05,0.0239,-0.1724,8.5736,-1.3359,-0.542,-0.5802,-9.2608,-0.1724,-0.407,-3.3053,1.1908,0.5115
16946.382,0.5312,9.3607,3.2303,0.28,-1.26,1.05,0.7801,-9.5569,-2.1583,0.84,-1.47,-1.05,-0.0215,-0.1293,8.5856,-1.3053,-0.5725,-0.5725,-9.2703,-0.1173,-0.4573,-3.2748,1.2824,0.4733
17005.917,0.536,9.4947,3.2303,0.07,-1.19,1.26,0.7705,-9.5139,-1.9908,0.0,-2.03,-0.91,0.0359,-0.1604,8.5856,-1.4275,-0.6107,-0.542,-9.256,-0.1101,-0.4262,-3.2061,1.1603,0.1985
17096.331,0.4977,9.4612,3.2303,0.98,-1.33,0.98,0.7513,-9.5378,-1.9717,2.03,-1.61,-1.05,0.0335,-0.1437,8.5018,-1.3588,-0.5725,-0.5725,-9.256,-0.1077,-0.4525,-3.5191,1.1832,0.3511
17185.618,0.5121,9.4229,3.2399,0.63,-1.33,0.84,0.7513,-9.5426,-2.077,2.1,-1.82,-0.91,0.0479,-0.182,8.588,-1.3817,-0.4885,-0.7405,-9.2895,-0.1245,-0.4597,-3.4656,1.374,0.5344
17246.241,0.5551,9.3847,3.2303,0.14,-1.12,0.91,0.7753,-9.5186,-1.9334,0.49,-2.24,-0.91,-0.0455,-0.158,8.5784,-1.3359,-0.5954,-0.3817,-9.2871,-0.0263,-0.407,-3.1908,1.1908,0.4885
17335.738,0.5121,9.4325,3.2303,0.84,-1.33,1.05,0.7418,-9.5474,-1.943,2.17,-1.68,-1.05,0.0096,-0.1867,8.4515,-1.2595,-0.3359,-0.4809,-9.2799,-0.0934,-0.4453,-3.2137,0.9008,0.4046
17426.285,0.4881,9.4373,3.2303,0.77,-1.4,0.98,0.7801,-9.5426,-2.0722,0.14,-1.68,-1.19,0.0455,-0.158,8.6095,-1.2519,-0.5191,-0.6947,-9.2967,-0.1221,-0.4094,-3.2748,1.1221,0.4809
17485.496,0.5503,9.4756,3.2112,0.77,-1.26,1.05,0.7848,-9.5186,-1.8568,-1.54,-1.89,-1.12,-0.0407,-0.1053,8.5353,-1.2977,-0.6183,-0.626,-9.2273,-0.1293,-0.3926,-3.2595,1.1603,0.5725
17575.657,0.5312,9.4181,3.2255,0.98,-1.33,0.7,0.7657,-9.533,-1.9478,1.61,-1.68,-1.12,0.1006,-0.1293,8.5401,-1.5725,-0.5115,-0.6718,-9.244,-0.1676,-0.5363,-3.3893,0.855,0.3206
17636.491,0.536,9.3655,3.2351,0.21,-1.33,1.05,0.7466,-9.5521,-2.1296,1.82,-1.68,-0.91,-0.0335,-0.1891,8.4779,-1.2901,-0.6336,-0.5038,-9.2584,-0.1053,-0.4238,-3.313,1.0916,0.5267
17726.938,0.5599,9.4277,3.2495,-0.35,-1.33,1.26,0.7896,-9.5186,-1.9334,0.14,-2.24,-0.91,0.0239,-0.1077,8.6119,-1.5038,-0.7176,-0.6031,-9.2991,-0.1341,-0.4286,-3.229,1.0687,0.5344
17816.976,0.4977,9.466,3.2495,0.42,-1.33,1.19,0.7322,-9.5282,-1.9573,2.52,-1.75,-0.91,-0.0239,-0.1365,8.5329,-1.5267,-0.5191,-0.6336,-9.3111,-0.0814,-0.407,-3.0458,1.1832,0.4198
17877.169,0.4881,9.4229,3.2351,1.26,-1.33,0.91,0.7657,-9.5234,-2.0578,2.1,-1.61,-0.98,0.0096,-0.0958,8.6095,-1.2901,-0.6031,-0.4656,-9.3206,-0.1053,-0.4357,-3.4504,1.3282,0.3893
17967.164,0.5743,9.4181,3.2399,0.91,-1.26,0.7,0.7753,-9.5234,-1.8616,-0.07,-1.96,-1.05,0.0024,-0.1317,8.4276,-1.3893,-0.4733,-0.6183,-9.2967,-0.1149,-0.3519,-3.3359,1.2061,0.5573
18056.86,0.536,9.3512,3.2207,0.91,-1.47,0.63,0.7513,-9.5474,-1.8712,2.38,-1.54,-0.91,0.012,-0.1293,8.5138,-1.2824,-0.374,-0.5344,-9.2105,-0.1077,-0.3615,-3.3588,1.1985,0.4198
18117.131,0.5264,9.3847,3.216,0.35,-1.33,1.12,0.7609,-9.533,-2.0483,0.98,-1.68,-0.98,0.0479,-0.0766,8.5784,-1.374,-0.4504,-0.4504,-9.3158,-0.1197,-0.4645,-3.1298,1.0305,0.4275
18207.5,0.5312,9.4564,3.2351,0.49,-1.12,1.33,0.7944,-9.5282,-1.9095,-1.26,-1.82,-1.12,0.0215,-0.0766,8.5425,-1.5115,-0.5496,-0.3053,-9.2751,-0.1101,-0.4621,-3.313,1.2748,0.2901
18266.795,0.5025,9.466,3.2303,1.19,-1.4,0.98,0.7418,-9.5186,-1.9286,0.91,-1.4,-1.12,-0.0024,-0.1077,8.4707,-1.5496,-0.5191,-0.5267,-9.3182,-0.091,-0.4238,-3.2519,1.229,0.3435
18357.119,0.536,9.399,3.2399,0.98,-1.33,0.98,0.7705,-9.5282,-2.1248,1.68,-1.33,-1.19,0.0622,-0.1556,8.4874,-1.5115,-0.626,-0.5878,-9.3015,-0.1197,-0.4334,-3.2137,1.5038,0.3893
18446.926,0.536,9.3894,3.2207,0.28,-1.19,0.98,0.7801,-9.5234,-1.9573,0.35,-2.03,-0.91,-0.0192,-0.1173,8.6215,-1.3817,-0.5573,-0.6183,-9.2033,-0.079,-0.3879,-2.9924,1.3817,0.2672
18506.503,0.5312,9.4038,3.2255,0.42,-1.33,1.05,0.7418,-9.5474,-1.9286,2.31,-1.68,-0.91,-0.012,-0.1173,8.4659,-1.3206,-0.8015,-0.6947,-9.2775,-0.1413,-0.395,-3.374,1.0992,0.5191
18597.842,0.5073,9.4469,3.2207,0.35,-1.26,1.12,0.7657,-9.5426,-2.0865,2.24,-1.47,-1.05,0.0096,-0.1532,8.5234,-1.3511,-0.6947,-0.626,-9.268,-0.1221,-0.3735,-3.2824,1.1603,0.3817
18687.491,0.5312,9.4564,3.2112,0.63,-1.33,1.33,0.7657,-9.5139,-1.8712,0.0,-2.03,-1.05,-0.0048,-0.1245,8.4779,-1.374,-0.4656,-0.4885,-9.2488,-0.0814,-0.4262,-3.2519,1.313,0.4122
18746.998,0.5168,9.4038,3.216,1.33,-1.4,0.77,0.7609,-9.5234,-1.8377,1.4,-1.47,-1.12,0.0096,-0.1724,8.5712,-1.4962,-0.5802,-0.7557,-9.2991,-0.0742,-0.5483,-3.1985,0.9695,0.5191
18837.777,0.536,9.3894,3.2255,0.84,-1.4,0.84,0.7609,-9.533,-2.0195,0.35,-1.54,-1.19,-0.0168,-0.1772,8.5425,-1.4885,-0.6183,-0.6565,-9.2847,-0.103,-0.3591,-3.2595,1.084,0.3206
18926.108,0.5934,9.4134,3.2207,0.28,-1.19,1.12,0.7801,-9.5139,-1.9095,-1.05,-2.1,-0.98,-0.0239,-0.146,8.5904,-1.3817,-0.6031,-0.5344,-9.2799,-0.0575,-0.5243,-3.458,0.9313,0.4809
18985.526,0.5025,9.4421,3.2495,0.49,-1.33,1.26,0.7561,-9.5569,-1.9334,0.77,-1.54,-1.12,0.0431,-0.1293,8.4851,-1.2366,-0.313,-0.5115,-9.2656,-0.0934,-0.4334,-3.374,1.0916,0.3511
19075.304,0.5025,9.466,3.2351,0.63,-1.4,1.26,0.7753,-9.5186,-2.0913,0.0,-1.54,-0.84,0.0168,-0.17,8.6239,-1.3282,-0.4962,-0.3664,-9.268,-0.0862,-0.3639,-3.3282,1.1679,0.3511
19136.63,0.5503,9.4277,3.2207,0.63,-1.19,0.98,0.7753,-9.5378,-1.9669,0.14,-1.75,-1.05,-0.0239,-0.1939,8.5162,-1.3664,-0.3893,-0.4962,-9.3087,-0.0263,-0.4621,-3.1603,1.1221,0.4275
19225.469,0.5168,9.3847,3.2303,0.77,-1.47,0.7,0.7801,-9.5139,-1.9908,2.24,-1.68,-0.84,-0.0311,-0.0982,8.4683,-1.3893,-0.5725,-0.4962,-9.268,-0.1197,-0.431,-3.2214,1.0916,0.3817
19317.533,0.5408,9.3464,3.2303,0.28,-1.26,0.84,0.7609,-9.5521,-2.1057,2.1,-1.54,-0.77,0.0168,-0.1197,8.5545,-1.3053,-0.5573,-0.458,-9.2823,-0.1221,-0.4693,-3.1527,1.1985,0.3053
19376.565,0.5408,9.4421,3.2351,0.35,-1.4,1.12,0.7753,-9.5378,-1.8999,0.28,-1.96,-0.98,0.0335,-0.1101,8.5832,-1.313,-0.5649,-0.7405,-9.2464,-0.0694,-0.3639,-3.3053,1.2824,0.3282
19467.488,0.4834,9.4756,3.216,1.12,-1.47,0.91,0.7513,-9.5378,-1.8903,0.35,-1.61,-1.19,-0.0311,-0.1053,8.6407,-1.3359,-0.6336,-0.3893,-9.2392,-0.1532,-0.3998,-3.3206,1.0382,0.4427
19556.89,0.5025,9.4421,3.2447,1.12,-1.33,1.05,0.7753,-9.5282,-2.01,-0.07,-1.75,-1.12,-0.0096,-0.1724,8.4276,-1.3282,-0.6107,-0.5496,-9.2751,-0.0862,-0.4693,-3.145,1.2137,0.4427
19617.148,0.5264,9.3894,3.2255,0.49,-1.26,0.77,0.7992,-9.5091,-1.8855,-2.59,-2.24,-1.12,0.0072,-0.1317,8.509,-1.145,-0.5878,-0.5878,-9.2512,-0.1796,-0.4094,-3.3359,1.1985,0.5725
19766.439,0.5264,9.4134,3.259,0.42,-1.26,1.12,0.7513,-9.5474,-1.9813,0.35,-1.61,-1.19,-0.0359,-0.0934,8.4779,-1.3664,-0.3511,-0.5267,-9.2273,-0.1053,-0.4214,-3.0611,1.1985,0.4275
19855.647,0.5216,9.4516,3.2207,0.49,-1.19,1.05,0.7513,-9.5234,-2.12,-0.07,-1.61,-1.05,0.0,-0.1221,8.4898,-1.1221,-0.7634,-0.5038,-9.2416,-0.1293,-0.2514,-3.1221,1.2519,0.4504
19945.898,0.5408,9.4277,3.3117,4.41,-1.96,0.49,0.7753,-9.5426,-1.919,-0.21,-1.75,-1.05,-0.0263,-0.1484,8.4994,-1.5344,-0.5954,-0.6336,-9.2991,-0.0934,-0.4525,-3.2214,1.1374,0.2824
20006.815,0.4499,9.5186,3.283,3.29,-1.61,1.12,0.7801,-9.533,-1.9095,1.96,-1.89,-0.84,-0.0024,-0.1077,8.4946,-1.5573,-0.4962,-0.6489,-9.2129,-0.1173,-0.2801,-3.3359,0.9847,0.2672
20095.554,0.5312,9.4229,3.2064,1.68,-1.54,1.4,0.7657,-9.5378,-1.9669,2.31,-1.61,-0.91,-0.0263,-0.1484,8.6072,-1.5038,-0.6336,-0.229,-9.268,-0.1125,-0.4214,-3.1756,1.1145,0.4885
20186.885,0.5216,9.4469,3.216,0.91,-1.26,0.91,0.7801,-9.5139,-1.9143,0.56,-1.96,-1.05,-0.012,-0.2155,8.6622,-1.4809,-0.626,-0.4962,-9.1866,-0.0982,-0.4357,-3.4504,1.0,0.5115
20245.398,0.5025,9.4564,3.216,0.63,-1.33,1.05,0.7466,-9.5186,-1.9765,2.03,-1.82,-1.05,0.0359,-0.1101,8.5928,-1.3359,-0.4885,-0.6183,-9.2153,-0.1389,-0.4956,-3.1374,1.0,0.2366
20335.32,0.5121,9.4325,3.2351,0.91,-1.33,0.77,0.7896,-9.533,-2.0243,1.05,-1.61,-0.98,-0.0383,-0.17,8.6503,-1.2748,-0.6641,-0.7481,-9.2656,-0.1508,-0.3711,-3.2061,1.1985,0.4275
20425.398,0.5121,9.4229,3.2495,0.21,-1.19,0.7,0.7753,-9.5282,-1.9334,0.56,-1.75,-1.05,-0.0455,-0.1484,8.5018,-1.145,-0.4656,-0.458,-9.3039,-0.1173,-0.4788,-3.4733,1.0153,0.3053
20488.402,0.4738,9.4325,3.216,0.63,-1.26,0.91,0.7705,-9.5474,-1.9765,0.84,-1.68,-1.05,0.0263,-0.146,8.6215,-1.313,-0.4733,-0.7481,-9.2249,-0.1149,-0.4573,-3.5191,1.3588,0.5573
20577.311,0.4977,9.4229,3.216,0.21,-1.26,0.98,0.7609,-9.5139,-1.9525,0.56,-1.82,-1.05,0.012,-0.1293,8.6095,-1.3053,-0.5038,-0.7328,-9.2656,-0.1125,-0.3974,-3.0611,1.145,0.2061
20638.219,0.5216,9.4134,3.216,0.63,-1.4,0.98,0.7418,-9.5282,-2.0052,1.26,-1.54,-1.05,0.0144,-0.1652,8.5688,-1.4809,-0.4427,-0.3282,-9.2632,-0.0814,-0.3735,-3.1756,1.0382,0.5038
20727.12,0.5073,9.3942,3.216,0.49,-1.26,1.05,0.7896,-9.533,-2.0195,0.91,-1.68,-1.05,-0.0048,-0.1556,8.6119,-1.4351,-0.5878,-0.5649,-9.3446,-0.1053,-0.3759,-3.1374,1.3893,0.5878
20817.418,0.5073,9.4373,3.2207,0.49,-1.26,0.98,0.7561,-9.5139,-1.9382,0.42,-1.89,-1.05,-0.0239,-0.1532,8.521,-1.3664,-0.458,-0.4733,-9.3398,-0.1437,-0.4094,-3.3282,1.2366,0.3282
20877.887,0.4977,9.4134,3.2255,0.56,-1.26,0.98,0.7609,-9.5426,-1.9573,1.12,-1.68,-1.05,-0.0263,-0.1604,8.5329,-1.4198,-0.3893,-0.6489,-9.2416,-0.1221,-0.4621,-3.1908,1.1527,0.5115
20967.191,0.5025,9.4277,3.2303,0.63,-1.26,1.05,0.737,-9.5139,-2.01,1.33,-1.68,-0.98,0.0048,-0.1269,8.5162,-1.3359,-0.626,-0.4122,-9.2871,-0.0982,-0.3831,-3.4351,1.084,0.3969
21055.408,0.4977,9.4134,3.216,0.84,-1.4,1.05,0.7753,-9.5378,-1.9717,0.7,-1.82,-0.98,0.0024,-0.1604,8.5617,-1.2977,-0.4427,-0.6183,-9.2201,-0.1077,-0.4142,-3.3206,1.1374,0.4885
21115.376,0.5264,9.4277,3.2303,0.63,-1.47,0.77,0.7705,-9.533,-1.9956,1.12,-1.68,-1.05,0.1197,-0.1245,8.6646,-1.1298,-0.4351,-0.4122,-9.2703,-0.0646,-0.4477,-3.084,1.084,0.6183
21206.048,0.4977,9.4181,3.216,0.7,-1.33,0.98,0.7561,-9.5091,-2.0052,0.7,-1.82,-1.05,0.0551,-0.1269,8.4946,-1.2977,-0.4809,-0.6565,-9.2201,-0.0144,-0.4549,-3.145,1.1756,0.3511
21295.883,0.5168,9.4516,3.2112,-0.21,-1.12,1.4,0.7705,-9.5139,-1.9478,0.84,-1.75,-1.05,-0.0527,-0.1125,8.5186,-1.2824,-0.6336,-0.6031,-9.2536,-0.0982,-0.4166,-3.3359,1.0916,0.5496
21355.388,0.4977,9.4325,3.2351,0.35,-1.26,0.98,0.7561,-9.5426,-1.9908,1.12,-1.68,-1.05,0.0072,-0.1101,8.5449,-1.4351,-0.5725,-0.3817,-9.2584,-0.091,-0.4286,-3.3588,1.1832,0.4198
21445.641,0.4881,9.4134,3.2255,0.56,-1.33,1.05,0.7657,-9.5426,-2.0435,1.19,-1.68,-0.98,0.0814,-0.1221,8.5018,-1.374,-0.5191,-0.458,-9.2871,-0.1269,-0.4884,-3.3893,0.9618,0.2977
21506.34,0.4929,9.4325,3.2351,0.84,-1.4,0.84,0.7561,-9.5091,-1.986,0.91,-1.75,-0.98,-0.0646,-0.1173,8.588,-1.5878,-0.542,-0.5725,-9.2416,-0.1101,-0.4022,-3.2748,1.2443,0.5725
21595.322,0.5168,9.4134,3.2112,0.77,-1.4,1.05,0.7657,-9.5426,-1.943,1.54,-1.68,-1.05,0.0718,-0.1053,8.6407,-1.3053,-0.626,-0.4885,-9.2392,-0.1532,-0.3184,-3.3053,1.229,0.4809
21717.463,0.4834,9.4038,3.2255,-0.42,-1.26,1.12,0.7705,-9.5378,-1.9573,1.12,-1.68,-1.05,-0.0551,-0.1221,8.5186,-1.3664,-0.4733,-0.6718,-9.2536,-0.1532,-0.4477,-3.1832,1.1298,0.4351
21747.064,0.4881,9.4181,3.216,0.35,-1.4,1.19,0.7705,-9.5569,-1.9621,1.05,-1.75,-0.91,0.0215,-0.1389,8.4994,-1.5344,-0.2977,-0.5344,-9.2512,-0.1197,-0.3615,-3.313,1.2137,0.4046
21835.353,0.4881,9.4277,3.2495,0.42,-1.33,0.98,0.7753,-9.5282,-2.0004,0.42,-1.54,-1.19,0.0215,-0.0718,8.4851,-1.313,-0.6336,-0.5191,-9.3206,-0.1508,-0.4621,-3.2977,1.2366,0.4198
21925.062,0.4977,9.4134,3.216,0.49,-1.26,1.12,0.7848,-9.5426,-1.943,0.63,-1.82,-1.12,0.079,-0.1101,8.6957,-1.2672,-0.6183,-0.6336,-9.2081,-0.0958,-0.3759,-3.374,1.0992,0.5038
21985.295,0.536,9.4277,3.2447,1.05,-1.4,0.91,0.7705,-9.5139,-1.9669,0.28,-1.89,-0.98,0.0359,-0.1197,8.5688,-1.3817,-0.7099,-0.6565,-9.2703,-0.1053,-0.2682,-3.1298,1.3817,0.5267
22078.383,0.4881,9.4421,3.2399,0.63,-1.4,1.19,0.7609,-9.5186,-1.9956,0.77,-1.75,-0.98,0.0622,-0.1676,8.4946,-1.5038,-0.5344,-0.6947,-9.2991,-0.1221,-0.3496,-3.4275,1.0305,0.5115
22165.839,0.5073,9.4373,3.2064,0.56,-1.4,1.33,0.7561,-9.5282,-1.9956,0.56,-1.82,-0.91,-0.0192,-0.1915,8.5808,-1.374,-0.5267,-0.5725,-9.2608,-0.1389,-0.3903,-3.2901,1.1756,0.3664
22226.691,0.4977,9.4325,3.2255,0.84,-1.33,1.33,0.8088,-9.5186,-2.0052,1.33,-1.68,-0.98,-0.0455,-0.1508,8.5138,-1.2748,-0.5496,-0.4885,-9.2273,-0.1101,-0.4118,-3.1527,1.2214,0.4122
22316.621,0.4834,9.4325,3.2207,0.77,-1.33,1.05,0.7513,-9.5234,-2.0148,0.56,-1.68,-0.98,0.0431,-0.1293,8.5641,-1.3206,-0.6183,-0.5115,-9.2584,-0.1197,-0.5076,-3.3511,1.1985,0.5191
22375.918,0.5216,9.4277,3.2207,0.49,-1.26,1.05,0.7418,-9.5234,-1.9717,0.7,-1.82,-0.98,0.0287,-0.1293,8.4539,-1.4656,-0.4122,-0.313,-9.2296,-0.1508,-0.3663,-3.3893,1.2672,0.4351
22465.96,0.5121,9.4229,3.2255,0.42,-1.26,1.26,0.7657,-9.5234,-1.9956,1.26,-1.75,-1.05,-0.0096,-0.1508,8.5976,-1.3969,-0.542,-0.4885,-9.2727,-0.1293,-0.2993,-3.1374,1.0992,0.6412
22555.273,0.5121,9.4229,3.2207,0.42,-1.26,0.91,0.7657,-9.5282,-2.0052,0.63,-1.75,-1.05,0.012,-0.1413,8.5186,-1.2672,-0.542,-0.8244,-9.2775,-0.1508,-0.431,-3.1145,1.2824,0.4275
22616.778,0.5168,9.4421,3.216,0.42,-1.4,1.05,0.7466,-9.5186,-1.9765,0.7,-1.82,-0.98,-0.0024,-0.0814,8.5928,-1.4504,-0.6794,-0.542,-9.2919,-0.1484,-0.4693,-3.0763,1.2061,0.6107
22707.075,0.5168,9.4181,3.1968,0.63,-1.19,1.05,0.7466,-9.5234,-2.0052,1.12,-1.54,-1.05,0.0599,-0.146,8.5497,-1.374,-0.6489,-0.5573,-9.2416,-0.067,-0.5387,-3.1756,1.2901,0.4275
22796.684,0.5025,9.4134,3.2303,0.49,-1.26,1.12,0.7848,-9.5234,-2.0195,0.98,-1.68,-1.05,0.0311,-0.1125,8.6479,-1.5038,-0.7481,-0.5725,-9.2464,-0.1317,-0.4908,-3.2519,1.0611,0.2748
22857.033,0.5503,9.4181,3.2207,0.49,-1.26,0.91,0.7705,-9.5378,-1.943,0.7,-1.75,-0.98,0.0287,-0.1652,8.5497,-1.2824,-0.5802,-0.6718,-9.2608,-0.1389,-0.407,-3.4656,1.1603,0.5496
22945.229,0.5216,9.4277,3.2303,0.77,-1.4,0.98,0.7657,-9.5474,-1.9956,1.4,-1.68,-0.98,-0.0527,-0.1365,8.6072,-1.4351,-0.5267,-0.626,-9.3015,-0.0503,-0.4262,-3.229,1.0611,0.4275
23006.974,0.5216,9.4421,3.2447,0.56,-1.4,0.98,0.7705,-9.5426,-2.0483,0.77,-1.89,-0.98,0.0335,-0.1389,8.5808,-1.2214,-0.5344,-0.4809,-9.2488,-0.1173,-0.4908,-3.2977,1.0687,0.4275
23096.14,0.5168,9.4373,3.2255,0.35,-1.4,1.26,0.7657,-9.5234,-1.9813,0.84,-1.75,-1.05,0.0072,-0.146,8.4994,-1.5191,-0.5649,-0.5267,-9.2201,-0.0886,-0.4214,-3.0229,1.0534,0.4046
23245.817,0.4929,9.4277,3.2542,0.63,-1.4,0.98,0.7848,-9.5426,-1.9717,1.47,-1.68,-1.05,-0.0335,-0.1269,8.4683,-1.3664,-0.3817,-0.5115,-9.2919,-0.1293,-0.5052,-3.1603,1.0,0.3817
23335.466,0.4834,9.4564,3.216,-0.56,-1.12,1.4,0.7561,-9.533,-1.9621,0.91,-1.75,-1.12,-0.0479,-0.1197,8.5425,-1.2748,-0.5267,-0.4656,-9.3302,-0.1317,-0.498,-3.2519,1.1832,0.4198
23425.429,0.5121,9.4373,3.2255,0.7,-1.33,1.12,0.7657,-9.5234,-1.986,0.77,-1.82,-0.98,0.0359,-0.1652,8.6095,-1.374,-0.5344,-0.4046,-9.2656,-0.1221,-0.486,-3.2901,1.2214,0.3588
23485.066,0.5121,9.4421,3.2303,0.49,-1.26,0.98,0.7322,-9.5426,-1.9956,1.61,-1.47,-1.05,-0.0383,-0.1269,8.5593,-1.4198,-0.4962,-0.5115,-9.2608,-0.1437,-0.4956,-3.3282,1.229,0.542
23575.353,0.5121,9.4134,3.216,0.21,-1.26,1.05,0.7513,-9.5378,-2.0148,0.77,-1.75,-1.05,-0.0048,-0.1269,8.4659,-1.1298,-0.6183,-0.5878,-9.244,-0.1796,-0.3639,-3.3664,1.0,0.5038
23665.164,0.4834,9.4086,3.2207,0.14,-1.26,1.05,0.7513,-9.5474,-1.9573,1.05,-1.75,-0.98,0.0646,-0.17,8.5952,-1.3893,-0.5649,-0.374,-9.2871,-0.1077,-0.4429,-3.2824,1.2595,0.458
23725.096,0.4977,9.4181,3.2303,0.07,-1.33,1.05,0.7513,-9.5234,-1.9573,1.75,-1.61,-1.05,-0.0455,-0.1413,8.5186,-1.1298,-0.6794,-0.3893,-9.2799,-0.158,-0.4094,-3.3206,1.1527,0.4046
23815.354,0.5312,9.4277,3.2255,-0.07,-1.26,0.98,0.7466,-9.5378,-1.986,1.12,-1.75,-0.91,-0.0239,-0.1389,8.497,-1.1145,-0.3359,-0.542,-9.2153,-0.1532,-0.407,-3.5344,1.1908,0.5344
23877.304,0.5025,9.466,3.2303,0.63,-1.4,1.26,0.7561,-9.5617,-1.9573,0.56,-1.75,-1.05,0.0048,-0.1221,8.5473,-1.145,-0.313,-0.4427,-9.2656,-0.1077,-0.3998,-3.1832,1.1221,0.374
23966.832,0.5121,9.4134,3.2303,0.77,-1.4,0.98,0.7561,-9.5186,-1.9286,0.7,-1.61,-0.98,-0.0048,-0.1556,8.4683,-1.4046,-0.3282,-0.6412,-9.2081,-0.0503,-0.3687,-3.3817,1.0,0.3206
24057.247,0.5264,9.4134,3.2399,0.42,-1.19,1.19,0.7705,-9.5474,-2.0339,0.49,-1.54,-1.12,-0.0263,-0.1413,8.5784,-1.1679,-0.6489,-0.626,-9.2847,-0.103,-0.5459,-3.2519,1.313,0.5878
24116.972,0.5408,9.4181,3.2495,0.56,-1.33,0.98,0.7753,-9.5091,-1.9717,-0.35,-1.75,-1.05,0.0,-0.1532,8.6191,-1.2901,-0.8321,-0.542,-9.3063,-0.1149,-0.4884,-3.2595,0.8473,0.458
24205.685,0.5216,9.4421,3.2351,0.7,-1.4,0.98,0.5647,-10.3514,-0.9811,-63.7,-14.35,1.89,0.0,-0.1676,8.4372,-1.2672,-0.7023,-0.6794,-9.1937,-0.146,-0.4908,-3.1374,1.2901,0.3359
24295.706,0.536,9.4373,3.216,0.49,-1.19,1.05,3.3117,-3.3691,-26.656,23.52,91.21,56.49,-0.012,-0.1389,8.588,-1.4275,-0.7023,-0.5878,-9.2536,-0.1245,-0.4741,-3.1374,1.1985,0.4504
24355.211,0.4881,9.4708,3.2255,0.91,-1.33,1.12,0.6365,-6.1256,-6.1208,-126.91,-134.54,-82.04,0.0862,-0.0934,8.4372,-1.4351,-0.542,-0.4733,-9.2392,-0.0479,-0.419,-3.3969,1.0992,0.3893
24445.183,0.5168,9.4421,3.2399,1.05,-1.54,1.19,-0.8375,-9.5186,-4.4172,-10.78,-167.72,-26.81,-0.0718,-0.1676,8.5569,-1.4046,-0.7328,-0.4809,-9.2584,-0.1125,-0.3256,-3.2061,1.1069,0.3511
24506.251,0.5551,9.399,3.2207,0.56,-1.33,1.19,3.4457,-17.348,2.4503,56.77,-40.25,149.24,-0.0144,-0.0982,8.4803,-1.3282,-0.6947,-0.626,-9.2751,-0.0982,-0.3543,-3.2595,1.1679,0.5649
24596.63,0.5121,9.4325,3.2255,0.21,-1.19,0.98,-0.5025,-11.3276,-9.3177,46.48,197.61,-352.31,-0.0335,-0.1484,8.5042,-1.0763,-0.7634,-0.4122,-9.2632,-0.0958,-0.3974,-3.1832,1.1908,0.4275
24685.021,0.4977,9.4134,3.2399,0.7,-1.4,1.12,5.4365,-8.016,9.7053,34.72,65.52,-3.36,-0.0144,-0.1077,8.5569,-1.4046,-0.4122,-0.458,-9.2991,-0.2131,-0.3519,-3.2137,0.9847,0.2748
24746.318,0.5264,9.4469,3.2303,0.91,-1.33,1.05,3.6514,-9.0497,5.8481,-104.72,68.88,-152.18,-0.0072,-0.2059,8.4898,-1.2901,-0.5115,-0.4046,-9.2512,-0.1173,-0.4118,-3.0534,1.3053,0.4809
24835.173,0.5216,9.4181,3.2351,1.19,-1.4,0.84,1.7324,-1.4405,9.8058,-390.67,-215.95,-104.72,0.0215,-0.2107,8.5665,-1.3664,-0.4504,-0.4198,-9.2919,-0.1053,-0.4166,-3.2366,1.0763,0.5802
24925.883,0.5073,9.3847,3.2399,0.56,-1.4,0.7,2.656,-2.9145,-10.6385,-241.85,-146.79,-103.53,-0.0407,-0.2203,8.5569,-1.4275,-0.542,-0.4656,-9.3134,-0.091,-0.4118,-3.3511,1.1985,0.4962
24985.597,0.536,9.4421,3.2207,-0.14,-1.12,1.26,-1.4931,9.3081,-5.9438,-95.69,-200.13,-125.51,0.0024,-0.1437,8.6191,-1.4733,-0.6412,-0.5878,-9.2775,-0.0622,-0.4214,-3.229,1.084,0.458
25075.469,0.5264,9.4373,3.2207,0.77,-1.26,1.12,-0.6269,5.0919,-9.8536,-59.29,-44.94,-31.57,0.0,-0.1197,8.5593,-1.1832,-0.5954,-0.4351,-9.2703,-0.0814,-0.4118,-3.1527,1.1221,0.4656
25165.136,0.5025,9.3894,3.2399,0.91,-1.33,0.91,-0.8471,4.0582,-10.873,-6.44,-160.79,-41.58,0.0527,-0.1221,8.5305,-1.313,-0.687,-0.626,-9.3015,-0.1173,-0.4286,-3.3206,1.0229,0.4504
25225.148,0.5456,9.3942,3.2255,0.49,-1.26,1.12,-1.7755,4.3119,-9.5952,50.54,-39.62,31.22,-0.0239,-0.1628,8.4659,-1.1603,-0.5725,-0.3206,-9.2871,-0.0934,-0.4573,-3.3206,1.1679,0.3511
25315.15,0.5503,9.399,3.216,0.21,-1.26,1.26,-0.8806,3.7711,-11.1649,33.32,-53.13,134.96,0.0192,-0.1149,8.6048,-1.3817,-0.5115,-0.458,-9.2608,-0.0718,-0.5435,-3.2824,1.0076,0.4275
25377.437,0.5408,9.4181,3.2255,0.42,-1.26,1.19,-0.8853,-2.1488,-12.9212,20.72,3.15,248.78,0.0455,-0.1317,8.5712,-1.5267,-0.5573,-0.6107,-9.3087,-0.1652,-0.4669,-3.2214,1.374,0.374
25465.147,0.5216,9.4325,3.2207,0.35,-1.19,1.26,0.5838,-6.8291,-8.8869,24.22,104.23,139.93,0.0335,-0.1173,8.4779,-1.2748,-0.458,-0.5115,-9.2632,-0.1006,-0.4477,-3.3817,1.1985,0.6183
25554.993,0.5312,9.466,3.2399,0.91,-1.4,1.19,3.46,-3.3835,-6.7956,24.71,120.89,-25.48,-0.0024,-0.1484,8.4827,-1.2977,-0.5725,-0.4198,-9.335,-0.1724,-0.4597,-3.3359,1.0992,0.5649
25616.202,0.5216,9.3751,3.2447,1.12,-1.4,0.84,5.2307,-1.3639,-11.2032,60.97,83.09,44.94,-0.0335,-0.0766,8.5856,-1.2901,-0.6107,-0.5344,-9.2009,-0.1317,-0.3926,-3.1527,1.0534,0.5344
25705.618,0.5599,9.3847,3.2255,0.7,-1.26,0.84,4.1252,-7.1306,-6.3697,21.0,37.45,-123.13,-0.0311,-0.1867,8.5353,-1.4656,-0.542,-0.4504,-9.2249,-0.1125,-0.5243,-3.313,1.2595,0.4427
25794.914,0.5551,9.399,3.2303,0.35,-1.33,0.84,0.4929,-7.2646,-2.1392,-10.22,-36.68,-254.66,0.012,-0.1484,8.6191,-1.3817,-0.6947,-0.4656,-9.2273,-0.1556,-0.4477,-3.1985,1.0916,0.4198
25855.16,0.5121,9.4899,3.2303,1.61,-1.54,0.98,-1.2395,-0.6891,-4.0056,-48.44,-131.11,-232.61,0.0287,-0.1317,8.3989,-1.3511,-0.5954,-0.6641,-9.2344,-0.0718,-0.4477,-3.2672,1.2366,0.4962
25945.187,0.5264,9.4804,3.2351,0.98,-1.47,0.91,-2.7948,3.0102,-10.2078,-38.99,-156.59,-59.92,0.0886,-0.1389,8.5688,-1.4809,-0.4885,-0.7023,-9.2823,-0.1341,-0.5052,-3.2901,1.2977,0.4427
26035.732,0.5264,9.4229,3.2064,1.33,-1.4,0.84,-2.8379,4.8718,-9.9685,40.32,-175.35,19.18,0.0215,-0.1484,8.5449,-1.4122,-0.6947,-0.6183,-9.1818,-0.1101,-0.5028,-2.9924,1.0534,0.2519
26095.097,0.5264,9.3751,3.2255,0.35,-1.4,0.7,-3.4983,4.5224,-5.6901,26.25,-45.29,88.97,-0.0718,-0.1508,8.5569,-1.3435,-0.7176,-0.6565,-9.2775,-0.1101,-0.3998,-3.3206,1.3053,0.4656
26185.266,0.5695,9.3655,3.2255,-0.14,-1.19,0.91,-3.9242,2.5699,-9.5569,51.87,-24.85,129.99,0.0096,-0.1604,8.5042,-1.4198,-0.6107,-0.5496,-9.3015,-0.1006,-0.4597,-3.3282,1.1679,0.4275
26245.854,0.5168,9.4516,3.2351,0.56,-1.4,0.98,-4.0917,1.9047,-13.5051,91.77,15.54,177.87,0.0287,-0.1077,8.5712,-1.5878,-0.5115,-0.4427,-9.3039,-0.0862,-0.4046,-3.2977,1.1908,0.4351
26335.578,0.5121,9.4612,3.2638,0.63,-1.4,0.84,-2.68,-3.4457,-12.7777,116.06,96.74,118.3,0.0192,-0.1317,8.5425,-1.2672,-0.6183,-0.5802,-9.2512,-0.0982,-0.5938,-3.3435,1.2214,0.5802
26426.575,0.5456,9.4325,3.2016,1.05,-1.19,0.77,-0.5503,-9.9063,-6.7238,65.94,104.09,71.75,0.0383,-0.0958,8.5305,-1.4046,-0.5496,-0.3282,-9.268,-0.0886,-0.5339,-3.2672,0.9771,0.4962
26486.049,0.5121,9.4277,3.2399,1.05,-1.33,0.84,1.2299,-3.4744,-8.9204,13.72,76.02,-40.39,0.0407,-0.1796,8.5258,-1.4351,-0.6107,-0.7176,-9.2512,-0.1173,-0.4788,-3.3206,0.9542,0.4198
26575.11,0.5264,9.4229,3.2207,0.35,-1.33,0.84,1.9813,-2.9336,-7.3364,22.54,63.14,-66.08,-0.0527,-0.079,8.5617,-1.0916,-0.6183,-0.6183,-9.2775,-0.1556,-0.407,-3.3206,1.0076,0.3588
26665.053,0.5312,9.3894,3.2447,0.14,-1.19,0.91,1.6319,-8.3605,-5.6662,5.25,-13.44,-81.9,0.0335,-0.1532,8.6191,-1.2977,-0.6412,-0.5878,-9.2057,-0.0934,-0.3926,-3.1985,1.2443,0.4885
26727.63,0.5312,9.4469,3.2447,1.26,-1.33,0.91,2.0291,-3.5509,-4.0869,5.6,-85.4,-92.75,-0.0072,-0.1365,8.4635,-1.4733,-0.6412,-0.4198,-9.2536,-0.1317,-0.5124,-3.1527,1.1374,0.4351
26817.53,0.4977,9.4277,3.2542,1.05,-1.33,0.84,1.2108,-1.0816,-5.738,-10.78,-104.93,-34.72,0.0192,-0.1556,8.4898,-1.3359,-0.626,-0.458,-9.3015,-0.0958,-0.431,-3.1374,1.0763,0.4885
26938.782,0.536,9.4134,3.2399,0.56,-1.26,0.98,-3.7902,4.3502,-12.2895,11.62,-118.58,-58.24,0.0192,-0.1532,8.4827,-1.4427,-0.6107,-0.4885,-9.2081,-0.1484,-0.3831,-3.2443,1.1832,0.3053
26965.484,0.5216,9.4134,3.2495,1.19,-1.4,0.84,-3.8716,4.3119,-10.3035,-20.3,17.5,24.29,0.0575,-0.17,8.5545,-1.313,-0.4885,-0.5954,-9.3158,-0.1556,-0.4717,-3.0916,1.1908,0.458
27085.635,0.5264,9.4086,3.2447,0.28,-1.33,1.12,-4.3214,1.675,-16.2903,45.64,20.58,95.2,0.0287,-0.0862,8.6167,-1.3817,-0.5573,-0.5878,-9.2895,-0.1532,-0.3639,-3.2366,1.1756,0.5344
27115.637,0.5216,9.4421,3.2447,0.42,-1.26,1.05,-4.4602,0.9476,-11.208,38.01,67.62,151.48,0.0263,-0.079,8.5569,-1.3511,-0.5115,-0.6412,-9.2129,-0.146,-0.3687,-3.4122,1.1527,0.3511
27237.382,0.4977,9.4277,3.259,1.05,-1.47,1.05,-4.0295,-5.0632,-8.2648,67.27,10.29,192.85,0.0144,-0.1269,8.6048,-1.229,-0.7481,-0.5115,-9.2368,-0.1437,-0.3519,-3.1756,1.0153,0.4046
27295.018,0.5168,9.4277,3.2447,0.63,-1.33,0.84,-2.3785,-5.4748,-8.0925,114.8,111.86,192.71,0.0048,-0.1341,8.5425,-1.3817,-0.5954,-0.3893,-9.3063,-0.1269,-0.4669,-3.1298,0.9084,0.3969
27355.181,0.5312,9.4181,3.2447,0.28,-1.12,1.05,-1.0337,-10.4231,-2.2301,68.04,33.67,100.66,-0.0287,-0.1891,8.5042,-1.3664,-0.4122,-0.5267,-9.2105,-0.1197,-0.4884,-3.1679,0.9771,0.2824
27444.935,0.4929,9.4277,3.2447,0.07,-1.26,1.19,-1.8329,-10.8538,-4.5607,-8.82,-37.1,-96.81,0.012,-0.1652,8.5377,-1.3664,-0.4885,-0.7176,-9.2943,-0.1293,-0.3855,-3.3206,1.1908,0.229
27534.955,0.4929,9.4469,3.2351,0.56,-1.19,1.05,-3.1011,-10.6816,-8.8199,-76.65,-22.54,-231.35,0.0168,-0.1844,8.5688,-1.458,-0.5344,-0.6412,-9.3422,-0.146,-0.4405,-3.458,1.0534,0.4656
27595.479,0.5408,9.4181,3.2495,0.63,-1.26,1.12,-8.9683,-1.4836,-8.9396,-78.05,-146.23,-463.96,0.0431,-0.1317,8.5449,-1.229,-0.374,-0.626,-9.2584,-0.1053,-0.5243,-3.2366,1.2366,0.542
27685.053,0.4977,9.4229,3.2399,0.63,-1.47,0.84,-9.4277,9.1262,-10.1504,-153.58,-177.45,-314.93,0.0431,-0.1556,8.6191,-1.3893,-0.5573,-0.5191,-9.335,-0.146,-0.4262,-3.2061,1.0305,0.3588
27747.046,0.536,9.399,3.216,0.77,-1.33,1.05,-6.3123,10.1408,-19.9418,-64.61,57.4,87.29,0.0144,-0.0718,8.5066,-1.2061,-0.5038,-0.5191,-9.2488,-0.1341,-0.431,-3.3893,1.0763,0.4122
27834.924,0.5551,9.332,3.2207,-0.14,-1.12,0.63,-4.1492,-0.134,-7.2694,-1.12,113.82,121.17,0.0096,-0.1365,8.6143,-1.2137,-0.6489,-0.4962,-9.2943,-0.0742,-0.3879,-3.1603,1.0687,0.458
27925.094,0.4977,9.4325,3.2399,1.4,-1.4,0.77,-0.1292,-4.1252,-6.5946,6.65,76.02,93.17,0.0072,-0.1365,8.4851,-1.3969,-0.4885,-0.5649,-9.2392,-0.146,-0.4932,-3.2214,1.0687,0.3435
27985.584,0.4834,9.4181,3.2542,1.47,-1.54,0.63,1.4788,0.4403,-3.5462,-3.57,29.26,69.3,0.012,-0.103,8.5473,-1.3206,-0.6565,-0.458,-9.3111,-0.1508,-0.395,-3.3053,1.0382,0.4504
28076.365,0.5312,9.3894,3.216,0.7,-1.33,0.98,-1.3831,4.1348,-7.1019,-50.61,-121.45,139.3,0.0048,-0.1724,8.5784,-1.3969,-0.4733,-0.4198,-9.244,-0.091,-0.4262,-3.3053,0.9313,0.5191
28164.927,0.5025,9.4086,3.2447,0.84,-1.4,0.84,-0.0431,0.1819,-21.009,39.55,-40.18,187.53,0.0287,-0.1101,8.5832,-1.2443,-0.4962,-0.6565,-9.2703,-0.1293,-0.4214,-3.1374,1.1298,0.2824
28225.218,0.5073,9.4038,3.2686,0.28,-1.26,0.98,2.7948,-11.8349,-6.7956,9.73,10.85,126.56,0.0503,-0.1628,8.5497,-1.5878,-0.5573,-0.5496,-9.2608,-0.1293,-0.4836,-3.3282,1.2366,0.4885
28315.077,0.5264,9.4325,3.2351,0.56,-1.33,1.12,1.9478,-9.1262,-1.6271,36.33,-60.41,-116.9,-0.0215,-0.1293,8.5329,-1.3511,-0.6641,-0.5344,-9.232,-0.1269,-0.4357,-3.2366,1.1679,0.4427
28406.84,0.4977,9.4229,3.2255,0.91,-1.26,0.98,-0.7561,-11.3611,-9.6861,-68.39,-84.42,-130.27,-0.0622,-0.1437,8.5712,-1.3282,-0.6336,-0.458,-9.2727,-0.0934,-0.431,-3.2061,1.2366,0.3053
28466.512,0.5168,9.4229,3.2542,0.98,-1.4,0.91,-9.8393,3.0724,-20.6166,-67.83,26.18,-430.43,-0.0718,-0.1341,8.5066,-1.3435,-0.5649,-0.5725,-9.3111,-0.1101,-0.486,-3.229,1.0534,0.3511
28554.94,0.5168,9.4038,3.2303,0.0,-1.26,1.05,-9.6526,15.6443,-12.859,-100.87,210.21,-124.32,-0.0215,-0.1437,8.5497,-1.3588,-0.6718,-0.5725,-9.177,-0.1101,-0.4932,-3.1069,1.1603,0.3969
28615.562,0.5168,9.4181,3.2447,0.14,-1.33,1.05,-2.2062,-8.2217,-5.7045,-84.91,224.42,148.4,0.0479,-0.0934,8.5449,-1.2519,-0.5344,-0.6336,-9.2751,-0.1532,-0.4118,-3.3817,1.1756,0.4198
28705.237,0.5073,9.4325,3.2255,0.56,-1.26,0.98,-8.2744,-5.47,27.527,125.37,-301.84,-228.27,0.0646,-0.1053,8.509,-1.3664,-0.6565,-0.5573,-9.2895,-0.1125,-0.3735,-3.2366,1.145,0.4122
28795.243,0.4834,9.4516,3.2638,0.98,-1.47,1.05,-29.6375,5.6614,-40.8455,-65.52,-644.35,-479.29,-0.0287,-0.1389,8.5832,-1.4733,-0.626,-0.6794,-9.2536,-0.146,-0.4214,-3.1145,1.2443,0.3969
28857.319,0.4977,9.4229,3.2447,1.26,-1.26,0.91,-23.0525,21.9422,1.0193,-122.43,436.38,742.35,0.0335,-0.158,8.4587,-1.4198,-0.6183,-0.4046,-9.2608,-0.1245,-0.4453,-3.1908,1.2595,0.5038
28944.886,0.4834,9.4134,3.2255,0.49,-1.33,0.91,-3.8812,-18.4008,-4.13,67.13,258.86,195.58,0.0192,-0.091,8.4563,-1.3893,-0.6031,-0.5649,-9.2632,-0.1963,-0.4334,-3.1298,1.1221,0.3359
29035.603,0.5503,9.4325,3.2351,0.07,-1.26,1.33,-6.408,-24.2632,9.0449,57.4,-284.06,-239.26,0.0192,-0.146,8.6479,-1.374,-0.5496,-0.5115,-9.2536,-0.0958,-0.3232,-3.374,1.0611,0.4046
29095.489,0.5168,9.4325,3.2303,0.42,-1.19,1.19,-34.4088,41.2331,-45.1095,0.07,-316.68,-460.6,-0.0575,-0.1676,8.5856,-1.313,-0.6336,-0.5267,-9.244,-0.091,-0.4286,-3.1985,1.1221,0.4733
29186.927,0.4881,9.4181,3.2542,0.91,-1.47,0.98,-28.8909,-25.5362,0.2871,173.25,521.15,972.37,0.0215,-0.1532,8.5688,-1.3435,-0.7557,-0.4809,-9.232,-0.0599,-0.4549,-3.1985,1.0992,0.5191
29247.746,0.536,9.4134,3.2351,0.56,-1.4,1.12,-1.273,-11.9545,16.0702,99.61,-174.72,-198.38,0.0599,-0.1604,8.6024,-1.3282,-0.5802,-0.4962,-9.3063,-0.0814,-0.4142,-3.2595,1.3511,0.5115
29337.131,0.5073,9.4134,3.2351,0.77,-1.33,0.77,-29.7954,20.6692,-48.938,-141.12,-652.05,-483.07,0.0239,-0.1628,8.5329,-1.4198,-0.542,-0.5954,-9.3446,-0.103,-0.3208,-3.3969,1.2519,0.4733
29425.192,0.5073,9.4612,3.283,0.07,-1.33,1.19,-18.7214,-25.5601,4.9531,177.87,800.38,472.01,0.0479,-0.1867,8.5234,-1.2977,-0.458,-0.5954,-9.2584,-0.0527,-0.4645,-3.1527,1.0382,0.3206
29486.786,0.5312,9.4421,3.2351,0.42,-1.19,1.12,1.6798,-1.5266,-9.4804,-25.76,-75.6,-325.01,0.0168,-0.1532,8.5401,-1.3893,-0.5573,-0.5649,-9.2751,-0.0742,-0.4166,-2.9542,1.145,0.4198
29576.37,0.4977,9.4469,3.2303,1.96,-1.47,0.84,-8.9444,-6.0203,-4.9866,-0.84,-212.87,-453.88,0.0239,-0.1652,8.5138,-1.3893,-0.6794,-0.2672,-9.2416,-0.103,-0.4214,-3.3893,1.0229,0.542
29664.78,0.5264,9.399,3.2303,1.4,-1.54,0.77,-11.9115,21.9518,-12.9356,36.61,74.69,-125.79,0.0072,-0.1556,8.5138,-1.2137,-0.4809,-0.5725,-9.3326,-0.1413,-0.4405,-3.2061,1.1374,0.3206
29724.832,0.5456,9.4086,3.2351,-0.14,-1.19,1.12,-16.6205,9.935,-23.0716,-111.93,-399.35,734.37,0.0694,-0.1006,8.509,-1.2137,-0.5496,-0.5878,-9.2392,-0.1437,-0.5363,-3.3435,1.2214,0.5496
29815.031,0.5216,9.399,3.216,0.14,-1.19,0.91,-14.9599,-32.7003,-3.6993,428.12,782.95,-186.13,0.0,-0.1197,8.4276,-1.4656,-0.6641,-0.6718,-9.1746,-0.0982,-0.4525,-3.1756,1.0153,0.4733
29905.713,0.5264,9.399,3.2207,0.07,-1.26,1.05,-13.4429,-2.3402,-5.0536,171.92,-437.92,-466.34,0.0407,-0.1437,8.5401,-1.4962,-0.3664,-0.8473,-9.2775,-0.1317,-0.4166,-3.4198,1.1527,0.542
29965.27,0.5121,9.4325,3.2112,0.42,-1.33,1.05,-21.6981,23.6507,-28.9867,55.44,-518.28,-30.94,-0.0335,-0.1389,8.5281,-1.313,-0.7328,-0.374,-9.256,-0.146,-0.3256,-3.2748,1.2214,0.5038
30054.957,0.5025,9.4421,3.2255,1.19,-1.47,0.77,-21.3727,-14.0507,-15.9458,79.17,640.99,817.6,0.0024,-0.1437,8.4683,-1.4122,-0.626,-0.626,-9.2081,-0.0766,-0.4956,-3.4962,1.2672,0.5115
30115.731,0.5121,9.399,3.2255,0.84,-1.26,0.91,-3.5749,-12.1651,1.4596,-3.15,-25.76,-568.33,-0.0168,-0.1149,8.6598,-1.2595,-0.6031,-0.4962,-9.2464,-0.1437,-0.4621,-3.3893,1.0687,0.4733
30207.908,0.536,9.399,3.216,0.49,-1.26,0.98,-21.0616,11.3228,10.5858,288.05,116.41,-633.71,0.0048,-0.1317,8.6024,-1.4046,-0.4962,-0.7786,-9.244,-0.1389,-0.4525,-3.3206,1.3511,0.4427
30295.575,0.5121,9.4229,3.2351,0.63,-1.26,1.05,-33.2507,26.79,-30.676,110.46,-654.36,0.77,-0.0407,-0.1772,8.6526,-1.3206,-0.5038,-0.5954,-9.2512,-0.091,-0.5195,-3.3511,1.0458,0.5344
30355.587,0.4977,9.4277,3.2207,0.7,-1.4,1.12,-39.8596,-28.5894,-12.4235,175.0,644.56,1157.17,0.0359,-0.1269,8.5281,-1.4427,-0.4427,-0.3588,-9.2416,-0.1484,-0.3783,-3.2137,1.2137,0.5496
30445.069,0.5168,9.4516,3.2447,0.91,-1.47,1.12,-20.942,6.518,9.8871,231.77,-104.02,-1044.61,-0.0168,-0.1173,8.5497,-1.5115,-0.6947,-0.687,-9.2775,-0.091,-0.4262,-3.1069,1.1527,0.4198
30537.085,0.4977,9.4229,3.2495,0.63,-1.4,0.91,-12.0503,26.522,-20.7936,75.74,-107.31,303.94,0.0431,-0.1149,8.4994,-1.1527,-0.626,-0.4733,-9.2344,-0.0694,-0.3735,-3.0687,1.2595,0.2061
30597.047,0.4977,9.6144,3.192,0.21,-0.98,2.31,-2.6895,-8.8822,-2.1679,73.15,0.77,176.75,0.0144,-0.1245,8.509,-1.374,-0.5191,-0.4122,-9.3087,-0.1293,-0.3926,-3.1527,1.2366,0.3817
30684.882,0.5216,9.4134,3.2064,0.91,-1.4,0.91,-3.1872,12.2608,-13.1749,74.97,-44.73,122.78,0.0,-0.1484,8.6287,-1.374,-0.6107,-0.5878,-9.232,-0.1724,-0.4118,-3.4962,1.084,0.458
30776.568,0.4929,9.4421,3.2351,1.12,-1.47,0.77,-1.1581,-0.8231,-10.8108,-2.1,19.81,364.7,-0.0024,-0.1149,8.6,-1.1985,-0.4962,-0.4656,-9.2057,-0.1796,-0.431,-3.2748,1.145,0.5115
30836.493,0.4977,9.4229,3.2303,1.12,-1.4,0.77,3.46,-16.5296,-8.2361,83.02,82.6,-49.0,0.0024,-0.1532,8.4779,-1.374,-0.5038,-0.4427,-9.2847,-0.1365,-0.4549,-3.2137,1.0458,0.4962
30926.371,0.5121,9.4229,3.2303,0.84,-1.19,0.91,-10.0499,18.1902,0.0,256.9,-422.45,-508.34,0.012,-0.1293,8.5665,-1.3282,-0.5878,-0.5038,-9.2703,-0.1077,-0.4405,-3.1832,1.1145,0.1908
30987.095,0.5121,9.4421,3.2495,0.7,-1.26,1.05,-11.6913,2.1296,-23.6698,42.0,219.66,649.95,0.0215,-0.1628,8.5377,-1.229,-0.4122,-0.5344,-9.2775,-0.0838,-0.4788,-3.1832,1.0916,0.3206
31076.555,0.5264,9.4229,3.216,0.07,-1.26,1.19,3.1968,-9.2267,6.1161,177.66,86.38,-124.88,0.0024,-0.1772,8.5521,-1.1985,-0.7939,-0.5496,-9.2823,-0.0934,-0.4525,-3.4962,1.1756,0.4427
31166.326,0.5312,9.4516,3.2399,0.49,-1.4,1.19,3.9386,-4.3549,-7.1641,56.35,1.47,-18.34,0.0479,-0.1484,8.5641,-1.3817,-0.6107,-0.5725,-9.2871,-0.1269,-0.51,-3.2137,0.9542,0.3664
31224.693,0.4929,9.4277,3.2303,0.77,-1.47,0.98,1.5075,1.0911,-7.9442,90.09,-136.64,-54.46,-0.0144,-0.0958,8.5473,-1.4656,-0.5954,-0.3053,-9.2751,-0.0575,-0.5411,-3.3817,1.0687,0.3282
31315.202,0.5168,9.4229,3.2112,0.28,-1.19,1.05,-0.9428,-8.2265,-8.327,97.37,-95.76,74.13,0.0,-0.1293,8.6048,-1.3282,-0.5725,-0.5802,-9.3326,-0.0886,-0.4214,-3.145,1.0687,0.3435
31405.365,0.536,9.4134,3.2112,-0.07,-1.26,0.98,-1.9382,-4.6229,-6.207,185.22,-38.85,-16.03,0.0551,-0.1437,8.5545,-1.5802,-0.6641,-0.5115,-9.2009,-0.0982,-0.4573,-3.1069,1.1527,0.687
31465.319,0.4881,9.4086,3.2495,0.42,-1.33,0.98,-3.7998,-8.3605,-3.2686,182.0,-204.96,-148.75,0.0144,-0.1006,8.5593,-1.4504,-0.4427,-0.6641,-9.2871,-0.091,-0.419,-3.2595,1.0458,0.4427
31554.718,0.5168,9.4612,3.2112,0.56,-1.26,1.05,-1.7037,-7.9777,-4.4746,66.15,41.02,90.16,-0.0383,-0.1604,8.5593,-1.374,-0.5878,-0.6336,-9.2727,-0.1484,-0.395,-3.3969,1.1985,0.542
31615.253,0.4929,9.4564,3.2255,1.26,-1.54,1.05,-2.0195,-4.2688,-1.8712,-115.43,-46.27,-57.75,0.0431,-0.1053,8.5258,-1.4198,-0.4809,-0.5573,-9.2129,-0.1125,-0.4549,-3.313,1.1527,0.5802
31705.149,0.469,9.4421,3.2447,1.33,-1.47,0.91,-2.3641,-8.5902,0.4355,42.14,10.29,-125.23,-0.0168,-0.0958,8.5281,-1.4656,-0.5496,-0.6641,-9.2249,-0.0622,-0.3831,-3.3359,1.2595,0.4351
31795.869,0.536,9.399,3.2542,0.35,-1.19,0.98,2.9862,-6.2692,-2.9719,78.26,5.39,-15.96,0.0359,-0.1125,8.5018,-1.3282,-0.7176,-0.5115,-9.3063,-0.1197,-0.3591,-3.2366,1.1679,0.6336
31855.44,0.5168,9.4325,3.2447,0.35,-1.26,1.12,0.3541,-9.399,-2.7996,-13.3,-19.95,-10.57,-0.0072,-0.1532,8.5305,-1.2748,-0.5954,-0.5115,-9.323,-0.067,-0.3926,-3.2977,0.9924,0.3588
31945.182,0.5312,9.4086,3.1872,0.49,-1.19,0.91,0.8566,-9.2602,-4.3214,13.93,-11.2,-6.44,0.0622,-0.1293,8.6191,-1.3817,-0.5496,-0.8092,-9.244,-0.0838,-0.4788,-3.4504,1.0611,0.5496
32034.796,0.5025,9.4229,3.2064,0.98,-1.33,1.19,0.67,-8.9683,-3.5653,1.12,-4.97,-2.73,0.0263,-0.1173,8.6287,-1.1985,-0.8168,-0.8015,-9.2009,-0.103,-0.4597,-3.1985,1.1756,0.3511
32094.976,0.4977,9.4229,3.2495,0.84,-1.47,1.05,0.5886,-9.1214,-3.4505,3.01,-4.41,-2.45,-0.0192,-0.1245,8.576,-1.4656,-0.5649,-0.7557,-9.2703,-0.1101,-0.4429,-3.4275,0.9771,0.3511
32186.442,0.5121,9.4086,3.2016,0.63,-1.4,1.12,0.5743,-8.9444,-3.7711,-1.75,-4.48,-2.59,0.0383,-0.1293,8.43,-1.3969,-0.6107,-0.5115,-9.2201,-0.103,-0.4956,-3.3893,1.2366,0.4046
32276.684,0.5503,9.3894,3.2303,0.0,-1.12,1.05,0.5934,-9.0305,-3.5988,1.61,-2.03,-1.4,-0.0479,-0.1245,8.6862,-1.2901,-0.5115,-0.2519,-9.3111,-0.1652,-0.3926,-3.3664,1.1145,0.4046
32337.064,0.5121,9.4469,3.2542,0.77,-1.54,1.12,0.6173,-9.0257,-3.6658,-0.35,-4.2,-2.45,-0.0383,-0.1389,8.5808,-1.5191,-0.5573,-0.6412,-9.2847,-0.0766,-0.5507,-3.3969,1.1527,0.4122
32425.593,0.4642,9.4325,3.2495,1.19,-1.4,0.77,0.5934,-9.0832,-3.3835,1.47,-4.83,-2.17,0.0551,-0.1772,8.5449,-1.2137,-0.5954,-0.5267,-9.2799,-0.0694,-0.4477,-3.1985,1.0992,0.2366
32487.125,0.5264,9.4708,3.2303,1.05,-1.47,1.19,0.5934,-8.9922,-3.6132,1.12,-3.15,-1.82,0.0048,-0.146,8.6072,-1.5725,-0.7176,-0.4962,-9.2919,-0.1125,-0.34,-3.1679,1.0382,0.3893
32576.745,0.4834,9.5378,3.2207,0.49,-1.61,2.24,0.6221,-9.0305,-3.6754,0.07,-3.5,-2.24,-0.0024,-0.0934,8.6095,-1.3969,-0.5038,-0.4351,-9.2871,-0.1437,-0.4908,-3.2977,1.0,0.4351
32666.288,0.5121,9.4181,3.1968,-0.14,-1.26,1.26,0.6987,-9.064,-3.5031,1.47,-4.55,-2.38,0.0359,-0.1125,8.5521,-1.4656,-0.771,-0.5802,-9.3206,-0.0982,-0.4214,-3.2672,1.0687,0.4122
32727.345,0.5456,9.4373,3.2399,-0.14,-1.26,1.05,0.6461,-8.9635,-3.6658,4.2,-3.57,-1.61,-0.0072,-0.146,8.5521,-1.3817,-0.4351,-0.6031,-9.232,-0.1149,-0.4932,-3.1145,1.1908,0.4122
32816.515,0.5168,9.4851,3.2255,0.14,-1.26,1.05,0.6126,-8.9492,-3.5031,-3.71,-3.92,-1.61,-0.0024,-0.1389,8.5832,-1.3817,-0.7023,-0.5191,-9.1937,-0.1006,-0.4669,-3.0458,1.3511,0.4275
32908.193,0.4977,9.4612,3.2112,0.98,-1.54,0.77,0.6078,-8.9874,-3.6419,1.05,-2.31,-1.54,-0.0144,-0.1197,8.497,-1.1908,-0.687,-0.6336,-9.2775,-0.1245,-0.5483,-3.4122,1.0382,0.4962
32964.842,0.5551,9.4038,3.216,0.49,-1.26,0.91,0.6652,-8.93,-3.6179,-0.84,-2.59,-1.4,0.0431,-0.1628,8.4755,-1.2824,-0.7023,-0.5496,-9.2943,-0.1101,-0.4932,-3.1908,0.9771,0.5649
33054.785,-4.6947,13.529,-3.6132,-515.83,-87.15,-178.85,0.6173,-9.0497,-3.5605,-0.42,-2.38,-1.4,0.0886,-0.1173,8.4707,-1.4427,-0.4809,-0.5802,-9.2799,-0.0862,-0.3926,-3.2137,1.0611,0.5038
33144.777,0.7418,11.6913,0.4786,-140.28,-476.0,-122.78,0.603,-8.9587,-3.7615,2.94,-2.87,-1.61,0.0048,-0.1556,8.5353,-1.3053,-0.374,-0.4962,-9.2632,-0.146,-0.4645,-3.3664,1.1603,0.3282
33205.046,-1.8377,25.5601,-0.2919,119.42,-110.67,273.77,0.6078,-9.0257,-3.6036,0.91,-2.73,-1.4,-0.0144,-0.1053,8.5305,-1.1603,-0.5878,-0.6565,-9.2727,-0.103,-0.3879,-3.4885,1.0992,0.4656
33355.564,3.2303,-4.7186,-5.4509,351.89,34.72,136.01,0.6269,-9.0497,-3.6371,1.19,-2.52,-1.4,0.0431,-0.1413,8.5018,-1.313,-0.5878,-0.3206,-9.2536,-0.0359,-0.4022,-3.2214,1.2366,0.3511
33446.755,8.6237,-5.4748,3.9673,244.65,10.78,60.27,0.5982,-9.0114,-3.6658,-0.84,-2.73,-1.82,0.0886,-0.1365,8.5425,-1.2901,-0.6565,-0.5038,-9.268,-0.0766,-0.4334,-3.4733,0.9466,0.6183
33534.975,8.0255,3.6562,1.1581,204.96,-98.0,-12.32,0.6221,-8.9922,-3.6227,1.47,-2.17,-1.33,-0.0311,-0.182,8.5688,-1.3282,-0.6183,-0.6641,-9.3063,-0.1317,-0.3424,-3.1298,0.9237,0.3817
33594.77,10.0259,-3.3117,6.2118,-46.27,-17.64,-43.33,0.6173,-8.9827,-3.6993,2.38,-1.89,-0.98,0.0263,-0.0838,8.5234,-1.3511,-0.4656,-0.6336,-9.2249,-0.1341,-0.4956,-3.2214,1.0305,0.4733
33684.947,5.4652,-0.6843,-2.455,98.0,-52.85,-72.45,0.6269,-8.9827,-3.6897,0.49,-2.31,-1.26,0.0192,-0.1867,8.5593,-1.3053,-0.5954,-0.5878,-9.2871,-0.0958,-0.3783,-3.2214,1.0916,0.4656
33774.842,8.0734,-2.3593,-8.6764,79.31,-97.58,-21.14,0.6508,-9.0066,-3.6036,1.19,-1.96,-1.05,0.0431,-0.1532,8.5138,-1.3053,-0.5725,-0.5802,-9.3206,-0.1149,-0.4549,-3.2519,1.0763,0.3359
33835.367,9.0736,-6.6042,-10.1743,72.73,-83.72,-33.95,0.6556,-9.0162,-3.5797,-0.77,-2.1,-0.98,-0.0072,-0.1173,8.5617,-1.458,-0.5038,-0.4656,-9.2296,-0.1341,-0.4741,-3.0382,1.2672,0.3664
33924.895,7.2598,-6.1208,-8.0255,47.25,-31.85,-42.0,0.5743,-9.0305,-3.7328,1.05,-2.38,-1.54,-0.067,-0.1317,8.6,-1.3359,-0.4962,-0.3053,-9.2416,-0.1437,-0.3855,-3.3206,1.1832,0.5038
33986.861,8.2313,-3.2638,-3.3356,-144.69,65.1,-43.33,0.6221,-8.9874,-3.6132,1.47,-2.1,-1.12,-0.067,-0.1556,8.5329,-1.3664,-0.6565,-0.5267,-9.2799,-0.0814,-0.4597,-3.2214,1.2061,0.5496
34076.074,8.4132,0.4786,-2.4503,-59.99,80.71,4.97,0.6126,-9.0162,-3.6084,1.26,-2.03,-1.19,0.0048,-0.1221,8.5473,-1.4962,-0.6031,-0.6031,-9.232,-0.1197,-0.328,-3.5115,1.229,0.3053
34164.721,10.0403,3.527,14.9934,146.65,39.55,30.38,0.6508,-9.0497,-3.5701,0.84,-3.22,-1.75,0.0599,-0.079,8.521,-1.4656,-0.6718,-0.5573,-9.2512,-0.103,-0.4549,-3.2519,1.1603,0.2748
34225.843,2.6321,-12.3518,-21.0712,-207.06,-252.91,45.78,0.6461,-9.0162,-3.5797,2.73,-3.15,-1.61,0.0527,-0.1628,8.5305,-1.4733,-0.3511,-0.2901,-9.2656,-0.1389,-0.5387,-3.3053,1.0534,0.3817
34314.928,2.68,-8.1691,-2.0722,-364.56,288.96,-108.71,0.6078,-9.0305,-3.5653,2.94,-2.38,-1.4,0.0359,-0.1293,8.5593,-1.3435,-0.6183,-0.3817,-9.2608,-0.1365,-0.3639,-3.3969,1.1221,0.5878
34405.415,6.5468,3.7519,12.6915,48.37,49.49,-92.4,0.6126,-9.0592,-3.6179,1.54,-2.8,-1.54,-0.0359,-0.1939,8.4324,-1.4046,-0.5191,-0.6107,-9.2536,-0.1006,-0.4429,-3.2901,1.2214,0.3511
34465.726,4.0678,-0.2776,-8.217,-14.49,-253.75,127.82,0.6317,-9.0114,-3.6275,1.19,-1.89,-1.19,0.0072,-0.1101,8.4779,-1.3053,-0.542,-0.5878,-9.2344,-0.0599,-0.4621,-3.2672,1.1908,0.5573
34554.728,9.6239,-3.3835,-7.0588,24.01,44.66,-2.31,0.6413,-8.997,-3.6371,0.28,-2.03,-1.12,0.0503,-0.146,8.6239,-1.4962,-0.8855,-0.3969,-9.2344,-0.1293,-0.4884,-3.2977,1.2061,0.4962
34647.323,9.8154,-3.2973,-1.6989,36.89,68.04,-24.85,0.6413,-8.9396,-3.5366,2.17,-2.24,-1.12,-0.0575,-0.1317,8.5521,-1.4885,-0.5496,-0.542,-9.1889,-0.1173,-0.4046,-3.4962,1.0153,0.5038
34706.605,8.7769,-2.0483,0.2728,-19.6,-22.89,4.69,0.6269,-9.0257,-3.5701,1.12,-2.03,-1.05,0.0599,-0.1413,8.5281,-1.229,-0.5191,-0.5038,-9.232,-0.0982,-0.4238,-3.0153,1.0458,0.4351
34796.456,9.0257,-1.675,-0.6269,9.24,-4.2,13.93,0.6413,-9.0018,-3.6036,1.54,-1.75,-1.12,0.1006,-0.1269,8.5066,-1.3511,-0.5344,-0.4885,-9.3182,-0.1053,-0.3735,-3.2366,1.2901,0.4504
34856.673,8.8726,-1.1007,0.5025,102.48,-34.65,33.04,0.6508,-9.0209,-3.6419,0.7,-1.61,-1.05,-0.0048,-0.1221,8.5425,-1.4885,-0.626,-0.6412,-9.2871,-0.1101,-0.4262,-3.0153,1.1221,0.2672
34945.21,8.9539,-3.5222,1.5123,23.87,-100.03,22.19,0.6508,-9.0018,-3.6179,0.21,-1.75,-1.05,0.0144,-0.1508,8.5712,-1.3282,-0.687,-0.8244,-9.2632,-0.1197,-0.4788,-3.2595,1.084,0.3359
35035.389,6.1065,-4.5464,-1.9669,68.74,-131.32,80.36,0.6221,-9.0162,-3.5653,0.56,-1.82,-1.12,-0.0239,-0.1532,8.5234,-1.3053,-0.7939,-0.7023,-9.2057,-0.0718,-0.4549,-3.2519,1.2443,0.4427
35095.119,5.8959,-8.9204,-13.4812,-12.81,173.04,31.5,0.6269,-9.0401,-3.6227,0.84,-1.75,-1.19,-0.0407,-0.1365,8.521,-1.4351,-0.3511,-0.3817,-9.2368,-0.1365,-0.3926,-3.0458,0.9847,0.3435
35184.735,8.4706,-5.3695,1.6415,-30.66,83.79,-8.68,0.6556,-9.0401,-3.6323,2.94,-1.61,-1.19,0.0,-0.1891,8.5856,-1.3588,-0.6336,-0.5649,-9.2871,-0.1269,-0.4621,-3.3588,1.1908,0.3511
35274.878,8.8056,-3.3595,-0.0287,-9.17,28.84,-16.03,0.6078,-9.0305,-3.6562,0.91,-2.03,-1.26,-0.0599,-0.1365,8.4348,-1.3053,-0.3359,-0.4656,-9.256,-0.067,-0.3687,-3.1069,1.2977,0.2901
35334.82,8.3605,-1.34,5.1398,71.68,-85.75,-27.44,0.6126,-8.997,-3.594,1.12,-2.73,-1.4,0.0239,-0.1891,8.5234,-1.3511,-0.4504,-0.2214,-9.2727,-0.1149,-0.4693,-3.2748,1.2137,0.6183
35424.777,5.1302,-4.6564,-7.8389,43.12,-53.13,54.46,0.6365,-8.997,-3.5892,0.98,-1.82,-1.05,-0.0144,-0.1413,8.5066,-1.084,-0.6336,-0.6107,-9.2703,-0.103,-0.4597,-3.2366,1.2214,0.3435
35515.23,7.523,-11.5669,-14.5627,-145.67,250.53,-14.91,0.6413,-9.0305,-3.6132,0.91,-1.75,-1.12,0.0479,-0.1101,8.6119,-1.313,-0.4504,-0.5573,-9.2895,-0.091,-0.4597,-3.3435,1.1145,0.5191
35576.213,10.5715,0.9954,21.6981,-67.83,6.65,-58.73,0.6413,-9.0066,-3.6275,0.84,-1.75,-1.05,-0.0024,-0.1556,8.5521,-1.0992,-0.6489,-0.4046,-9.2751,-0.0934,-0.4405,-3.2061,1.2977,0.2748
35695.545,-6.5515,1.1103,3.996,315.56,-571.48,250.18,0.6365,-9.0209,-3.6275,0.98,-1.75,-1.19,0.0096,-0.0934,8.521,-1.374,-0.5878,-0.6031,-9.3302,-0.103,-0.4286,-3.3588,1.3893,0.3893
35725.891,-2.1153,-26.5747,-8.8008,-99.68,476.0,-65.94,0.6604,-8.9922,-3.6467,0.7,-1.75,-1.12,-0.0575,-0.1437,8.5449,-1.1985,-0.5267,-0.2977,-9.2416,-0.0862,-0.3711,-3.2977,1.0458,0.4962
35815.079,3.0963,-0.7992,10.8538,59.64,262.36,-180.18,0.6317,-9.0305,-3.5892,0.35,-1.61,-0.98,0.0239,-0.1101,8.5593,-1.2061,-0.4275,-0.7023,-9.2488,-0.146,-0.4597,-3.2595,1.2137,0.1908
35905.871,9.2794,8.7482,19.8126,-186.06,-34.93,154.98,0.6413,-8.997,-3.6179,1.05,-1.75,-1.12,0.0024,-0.1532,8.5138,-1.313,-0.3664,-0.5573,-9.2368,-0.1389,-0.3998,-3.1756,1.2061,0.4885
35965.328,-13.1414,-12.658,-0.3015,-163.87,-522.27,89.81,0.6317,-8.9922,-3.6467,0.91,-1.75,-1.12,0.0263,-0.1173,8.5114,-1.4275,-0.5649,-0.4504,-9.2201,-0.1676,-0.3879,-3.3664,1.1221,0.458
36054.983,-10.9687,-10.7246,-6.4176,-222.81,463.12,-548.66,0.6413,-9.0162,-3.5749,0.63,-1.68,-0.98,0.0335,-0.1365,8.5976,-1.2824,-0.5191,-0.4275,-9.3206,-0.1006,-0.4525,-3.1221,1.0916,0.4504
36144.85,5.0919,1.608,18.9177,-141.05,194.95,-121.66,0.6556,-9.0114,-3.6132,1.12,-1.75,-1.19,0.0335,-0.1173,8.4707,-1.4427,-0.7328,-0.6641,-9.2727,-0.103,-0.3424,-3.2137,1.1069,0.3206
36205.968,6.2596,0.6365,9.0018,-69.51,-151.62,32.62,0.6221,-9.0018,-3.6227,1.54,-1.61,-0.77,0.0168,-0.158,8.5377,-1.4656,-0.6183,-0.4962,-9.2656,-0.0982,-0.431,-3.1603,1.1985,0.4504
36294.926,4.4746,-11.2989,-10.7007,147.07,-112.35,91.63,0.6221,-8.9827,-3.5844,1.12,-1.75,-1.05,0.0215,-0.1173,8.5162,-1.3588,-0.6794,-0.6641,-9.2344,-0.1413,-0.3926,-3.3588,1.2214,0.4962
36357.306,4.4985,-10.2317,0.5456,81.34,68.53,-28.49,0.6413,-9.0209,-3.6179,1.05,-1.68,-0.98,0.0072,-0.1269,8.4994,-1.4275,-0.4351,-0.5038,-9.268,-0.0838,-0.4741,-3.3893,0.9313,0.4122
36446.327,7.614,-5.9342,13.1222,-88.48,14.84,-24.08,0.6413,-9.0114,-3.6275,0.42,-1.96,-1.12,0.0263,-0.1221,8.5545,-1.5649,-0.7099,-0.3969,-9.3302,-0.1317,-0.51,-3.3817,1.0382,0.374
36536.749,6.475,-3.1107,9.4947,-97.09,-231.98,8.26,0.6078,-8.997,-3.6227,0.7,-1.75,-1.05,0.0551,-0.1556,8.4803,-1.2443,-0.7481,-0.4504,-9.2775,-0.1532,-0.4357,-3.1679,1.2443,0.5267
36597.316,-7.5374,-11.3803,-25.7707,85.05,-407.68,156.24,0.6413,-9.0114,-3.6562,1.47,-1.75,-1.12,0.0503,-0.1389,8.5329,-1.5191,-0.7099,-0.3664,-9.3015,-0.1053,-0.4357,-3.2595,1.1908,0.4504
36687.304,-1.7611,-9.2889,-10.3801,173.67,231.07,-165.76,0.6269,-9.0209,-3.6227,1.05,-1.89,-1.12,0.0215,-0.1269,8.5665,-1.5038,-0.6183,-0.5802,-9.2608,-0.091,-0.4549,-3.3664,1.145,0.4198
36806.202,2.1966,-4.4554,11.5478,46.76,181.09,-258.16,0.6413,-8.9874,-3.6132,0.77,-1.75,-1.05,0.0024,-0.1437,8.5425,-1.2443,-0.771,-0.4656,-9.2632,-0.103,-0.419,-3.1221,1.0763,0.5878
36835.694,5.3264,3.6227,16.5535,11.69,-154.42,140.21,0.6317,-9.0401,-3.6275,0.98,-1.75,-1.05,-0.0479,-0.1293,8.691,-1.3893,-0.4733,-0.5954,-9.2632,-0.079,-0.4214,-3.2977,1.1221,0.374
36924.842,-8.8965,-14.4622,-28.9053,686.07,-550.55,513.38,0.6413,-8.9922,-3.6084,0.84,-1.82,-1.12,0.0311,-0.1293,8.6455,-1.5191,-0.771,-0.3282,-9.2823,-0.103,-0.395,-3.2748,1.0916,0.5954
37015.304,-1.6463,10.4566,5.9486,-60.76,322.56,-384.23,0.6365,-8.9922,-3.6036,0.56,-1.82,-0.98,0.0479,-0.1413,8.5353,-1.3435,-0.5038,-0.5954,-9.2871,-0.0934,-0.4118,-3.4656,1.2137,0.5115
37075.634,5.7858,1.2443,13.0696,-21.91,-65.31,23.1,0.6269,-9.0162,-3.6275,1.47,-1.54,-0.98,-0.0096,-0.1796,8.4851,-1.5344,-0.4885,-0.5191,-9.2895,-0.0982,-0.4693,-3.3359,1.2824,0.4275
37165.113,1.1581,-12.4857,-7.8724,21.42,-149.45,219.45,0.6269,-9.0209,-3.6227,0.77,-1.96,-1.19,-0.0359,-0.1437,8.6335,-1.4122,-0.5038,-0.5496,-9.2488,-0.1101,-0.4118,-3.313,1.1985,0.4275
37255.637,1.919,-11.1601,-0.6317,22.68,189.42,-162.89,0.6221,-9.0114,-3.6179,0.77,-1.75,-1.12,0.0311,-0.1772,8.4994,-1.5038,-0.6183,-0.4809,-9.2464,-0.0575,-0.4334,-3.3511,0.9771,0.4504
37316.388,5.3216,-2.9049,17.9557,-15.33,34.72,-76.58,0.6461,-9.0162,-3.5557,0.91,-1.75,-1.05,0.0263,-0.1628,8.6503,-1.458,-0.5038,-0.5191,-9.2488,-0.0862,-0.4262,-3.1679,1.0534,0.3664
37405.558,0.1627,4.6516,6.5994,50.33,-335.72,202.93,0.6508,-9.0162,-3.594,1.33,-1.82,-1.12,0.0575,-0.1437,8.6,-1.4809,-0.8473,-0.5191,-9.2751,-0.1293,-0.4525,-3.1527,1.1832,0.2748
37465.397,-14.5866,-54.6664,-18.195,790.3,-161.35,332.08,0.6173,-9.0305,-3.6179,1.12,-1.75,-1.05,-0.0072,-0.1077,8.5736,-1.3282,-0.458,-0.6183,-9.2632,-0.1006,-0.4405,-3.2595,0.9771,0.3053
37555.15,-1.0193,7.9298,21.5545,-95.34,336.35,-222.25,0.6413,-8.9779,-3.6227,0.98,-1.68,-0.98,0.012,-0.1269,8.5569,-1.4046,-0.4962,-0.5344,-9.2584,-0.1101,-0.4405,-3.1527,1.1832,0.4504
37644.74,4.4746,7.5852,19.9849,-36.75,-177.87,82.46,0.6413,-9.0018,-3.6132,1.05,-1.82,-1.05,-0.0383,-0.1221,8.5473,-1.4122,-0.7099,-0.5344,-9.2727,-0.067,-0.4908,-3.145,1.0153,0.4046
37715.516,-5.0249,-20.9324,-18.1711,680.19,-516.18,574.84,0.6317,-8.997,-3.6036,0.56,-1.82,-1.05,0.0096,-0.0742,8.6119,-1.3359,-0.5725,-0.5573,-9.2584,-0.0862,-0.4357,-3.1679,1.0992,0.3969
37795.242,-7.145,14.6249,15.4672,-388.71,630.0,-543.83,0.6652,-9.0209,-3.6179,0.77,-1.68,-0.91,0.0263,-0.1006,8.5258,-1.4962,-0.5954,-0.6794,-9.2584,-0.1389,-0.4812,-3.1832,1.2366,0.4733
37885.221,4.1827,5.3551,16.2281,6.16,-156.59,73.85,0.6508,-9.0209,-3.6371,0.91,-1.68,-1.05,0.0646,-0.1628,8.6048,-1.5344,-0.542,-0.6412,-9.2991,-0.091,-0.3807,-3.3817,1.0611,0.4198
37946.343,-7.9155,-21.2243,-22.6361,725.83,-487.55,619.71,0.6413,-9.0018,-3.6132,0.91,-1.82,-1.12,-0.0239,-0.103,8.5186,-1.4275,-0.5573,-0.4809,-9.2392,-0.1125,-0.4357,-3.3664,1.0916,0.4275
38035.214,-1.1629,15.8309,11.8253,-215.25,401.66,-405.72,0.6269,-9.0018,-3.6323,0.77,-1.75,-0.91,0.0072,-0.0958,8.4539,-1.3817,-0.6565,-0.6183,-9.2967,-0.1317,-0.3783,-3.3206,1.0305,0.4351
38096.03,5.202,2.1248,16.2329,-51.8,18.62,26.88,0.6461,-9.0257,-3.6132,0.49,-1.61,-1.05,-0.0527,-0.146,8.5617,-1.5267,-0.6031,-0.542,-9.2871,-0.1221,-0.3328,-3.2824,1.2443,0.4122
38184.901,-2.6273,-0.9811,4.1013,65.03,-344.68,323.05,0.6173,-9.0162,-3.5749,0.7,-1.75,-0.98,0.0311,-0.1628,8.5665,-1.3511,-0.5038,-0.6947,-9.2775,-0.0958,-0.4142,-3.2672,1.1527,0.5038
38274.756,-12.1173,-58.9879,-5.3839,-276.78,305.13,-556.92,0.6317,-8.997,-3.6036,0.91,-1.82,-1.05,0.0359,-0.1149,8.4659,-1.2214,-0.374,-0.6336,-9.2871,-0.1317,-0.4453,-3.4733,1.0076,0.4122
38335.216,2.4694,0.2297,20.0949,-44.94,141.82,-75.6,0.6365,-9.0401,-3.6323,0.84,-1.75,-1.05,-0.0287,-0.1484,8.4922,-1.2672,-0.7863,-0.6183,-9.2727,-0.1293,-0.498,-3.0992,1.0,0.4809
38426.196,4.5799,6.1448,14.4096,-38.99,-143.43,101.71,0.6556,-9.0305,-3.6514,0.91,-1.75,-1.05,0.0287,-0.1149,8.5736,-1.4427,-0.5496,-0.4275,-9.3039,-0.1389,-0.3639,-3.2672,1.0458,0.2977
38516.973,-8.2696,-23.1625,-21.856,610.19,-376.46,530.32,0.6413,-9.0162,-3.5844,0.35,-1.89,-1.05,0.0072,-0.1317,8.5688,-1.313,-0.6412,-0.5954,-9.2368,-0.1245,-0.3496,-3.1679,1.1069,0.5878
38575.228,-0.7274,9.8249,2.388,-56.49,345.17,-340.34,0.6652,-9.0162,-3.5988,1.12,-1.82,-1.05,0.0263,-0.1173,8.4659,-1.4122,-0.6412,-0.5725,-9.3278,-0.1317,-0.4645,-3.1832,1.2366,0.4198
38666.552,3.7615,1.8664,20.406,-41.51,-75.04,-5.39,0.6508,-9.0162,-3.6036,0.84,-1.75,-1.12,-0.0527,-0.1077,8.5545,-1.2443,-0.5649,-0.5496,-9.2273,-0.1628,-0.5291,-3.3893,1.1985,0.6031
38728.146,-4.3502,-10.672,1.9478,154.7,-417.9,256.83,0.6269,-9.0114,-3.6036,1.26,-1.82,-1.05,-0.0599,-0.1413,8.5545,-1.1527,-0.4046,-0.6412,-9.2871,-0.1006,-0.4501,-3.2214,1.2824,0.4504
38815.203,-3.9529,-23.9761,-2.1918,-106.75,173.6,-344.19,0.6556,-9.0209,-3.6036,0.49,-1.61,-0.91,0.091,-0.1365,8.5258,-1.2748,-0.5191,-0.5954,-9.2344,-0.1173,-0.4645,-3.0763,1.1603,0.4656
38905.457,2.0435,-7.8772,18.0658,-133.84,248.71,-162.54,0.6413,-9.0305,-3.6084,0.35,-1.89,-1.12,0.0239,-0.0886,8.4587,-1.3359,-0.6336,-0.6641,-9.3087,-0.1915,-0.4525,-3.3969,1.0916,0.3817
38965.366,3.1537,8.9157,17.1853,-71.75,-189.28,67.83,0.6413,-8.9874,-3.6179,0.14,-1.75,-1.05,0.0311,-0.1006,8.4851,-1.2672,-0.5267,-0.7023,-9.2273,-0.1389,-0.4405,-3.2137,0.9466,0.458
39056.544,-7.1641,-12.5384,-24.0909,410.41,-500.36,442.68,0.6508,-9.0114,-3.5988,1.19,-1.75,-1.05,0.0215,-0.1628,8.5425,-1.3359,-0.7099,-0.6565,-9.2225,-0.1293,-0.3903,-3.1069,1.1298,0.5878
39207.988,-0.335,4.2497,32.2648,-99.47,60.06,-130.27,0.6556,-9.0162,-3.6371,2.52,-1.68,-1.12,0.0383,-0.1676,8.4827,-1.2901,-0.5344,-0.5802,-9.2105,-0.1867,-0.4022,-3.084,1.0763,0.4122
39295.824,-5.9773,-8.7912,8.5472,55.93,-454.51,213.85,0.6317,-9.0209,-3.6419,1.61,-1.68,-0.98,0.0239,-0.0862,8.6263,-1.3664,-0.4504,-0.5802,-9.2703,-0.1484,-0.4142,-3.3359,1.2214,0.4046
39386.544,-10.8347,-46.2963,-6.0826,-101.99,247.45,-372.47,0.6604,-9.0018,-3.5892,-0.07,-1.82,-0.98,0.0455,-0.1365,8.5186,-1.3282,-0.5496,-0.3664,-9.3111,-0.0958,-0.3879,-3.2824,1.1221,0.5344
39444.921,-0.9045,-6.1448,10.6098,-89.88,312.97,-231.07,0.6508,-8.997,-3.5701,0.0,-1.68,-1.05,0.0311,-0.1197,8.6,-1.3053,-0.8855,-0.5038,-9.2991,-0.1341,-0.3639,-3.313,1.1298,0.3664
39535.661,2.5747,9.935,18.7358,-127.05,-132.72,71.96,0.6173,-9.0162,-3.6036,0.49,-1.68,-1.12,0.0335,-0.1365,8.6191,-1.5115,-0.687,-0.6947,-9.2991,-0.1245,-0.4357,-3.1985,1.084,0.5496
39595.866,-7.322,-8.7673,-1.0289,12.39,-527.94,223.65,0.6604,-8.997,-3.6132,1.26,-1.75,-1.05,0.0215,-0.1125,8.5569,-1.2443,-0.6031,-0.5115,-9.2775,-0.0838,-0.4453,-3.2901,1.2824,0.3969
39687.318,-12.0838,-28.5416,2.4168,-271.18,303.87,-589.4,0.6365,-9.0257,-3.6706,1.75,-1.68,-1.19,0.0455,-0.1389,8.4994,-1.4122,-0.3359,-0.3359,-9.2632,-0.0982,-0.3855,-3.1527,1.1298,0.3664
39775.002,-1.2347,-2.8762,21.9422,-106.19,327.25,-213.78,0.6173,-9.0114,-3.6323,1.05,-1.82,-1.05,-0.0144,-0.1867,8.5281,-1.2519,-0.5954,-0.542,-9.1866,-0.1341,-0.3448,-3.5573,1.1527,0.4122
39836.68,2.2205,8.351,17.7835,-109.55,-168.7,128.73,0.6413,-8.997,-3.5509,0.35,-1.68,-1.05,-0.0407,-0.1269,8.6263,-1.4351,-0.6336,-0.6641,-9.2608,-0.1245,-0.4357,-3.1145,1.1069,0.458
39924.753,-3.8764,-17.0513,-19.2861,306.6,-343.98,432.32,0.6461,-8.9874,-3.5366,1.05,-1.75,-0.98,0.0287,-0.1197,8.5473,-1.3969,-0.3969,-0.3282,-9.2225,-0.1365,-0.4357,-3.1908,1.1603,0.3817
40014.722,-2.6704,-3.7137,-1.5553,-112.0,261.66,-406.56,0.6413,-9.0209,-3.5844,1.47,-1.68,-1.05,0.012,-0.091,8.5736,-1.313,-0.4733,-0.7634,-9.2967,-0.1389,-0.4022,-3.0458,1.2519,0.4122
40075.817,1.0911,1.8473,25.2778,-138.46,127.61,-96.53,0.6269,-9.0162,-3.6658,0.98,-1.89,-1.05,0.012,-0.1389,8.5305,-1.4351,-0.6718,-0.6718,-9.268,-0.0838,-0.3543,-3.0534,1.1221,0.542
40164.637,-1.3161,-1.4979,12.792,-90.09,-366.87,192.29,0.6556,-9.0018,-3.6754,0.35,-1.75,-1.05,-0.0239,-0.1125,8.6167,-1.2824,-0.6489,-0.4885,-9.3063,-0.1269,-0.3879,-3.1832,1.229,0.3282
40254.87,-14.199,-54.2644,-22.2963,560.0,30.45,399.91,0.6652,-9.0114,-3.5701,0.07,-1.75,-0.98,0.0048,-0.1197,8.5617,-1.3588,-0.5802,-0.4885,-9.2512,-0.103,-0.4046,-3.2977,0.9695,0.2519
40315.209,-1.0863,-1.3017,-0.6365,169.12,288.33,-325.36,0.6413,-9.0114,-3.594,0.98,-1.75,-1.12,-0.0575,-0.1413,8.5162,-1.3588,-0.6565,-0.5496,-9.2368,-0.1006,-0.4453,-3.2519,1.1679,0.4046
40406.233,4.0152,12.2513,22.9759,-46.34,-68.46,-78.82,0.6556,-9.0066,-3.5557,1.68,-1.82,-1.12,0.012,-0.1532,8.6287,-1.3282,-0.5573,-0.5649,-9.2129,-0.1221,-0.4812,-3.145,1.145,0.4885
40466.369,5.4413,-6.6042,2.3545,-3.78,-319.41,39.55,0.6461,-9.0257,-3.6084,1.54,-1.82,-1.05,-0.0311,-0.1173,8.509,-1.3664,-0.4351,-0.5725,-9.2201,-0.0718,-0.4357,-3.3664,1.1145,0.5191
40554.505,1.9765,-6.9918,0.8758,141.19,-89.25,-35.21,0.6317,-9.0209,-3.6419,1.75,-2.24,-1.4,-0.0192,-0.1413,8.4707,-1.5496,-0.8015,-0.6031,-9.2632,-0.103,-0.4357,-3.2214,1.0305,0.2977
40644.645,-0.9284,0.5599,0.1819,-60.62,74.27,36.19,0.6556,-9.0018,-3.6514,0.98,-1.96,-1.19,0.0599,-0.1317,8.6311,-1.1832,-0.542,-0.7023,-9.2009,-0.1508,-0.4788,-3.4122,1.2061,0.4046
40708.522,-18.5779,3.2877,0.3829,499.45,-206.36,668.57,0.6556,-8.9874,-3.5509,0.56,-1.75,-0.91,-0.0024,-0.1221,8.576,-1.3817,-0.4809,-0.4656,-9.2656,-0.0646,-0.4669,-3.3282,1.1679,0.458
40796.788,-14.3234,-50.4024,6.7478,12.39,13.37,-79.66,0.6221,-9.0162,-3.5892,1.33,-1.82,-1.05,0.0862,-0.1173,8.6095,-1.3664,-0.4962,-0.5954,-9.2177,-0.1197,-0.395,-3.0076,1.0458,0.2977
40884.722,-8.8678,-27.2112,10.8969,14.28,468.23,-201.04,0.6317,-9.0162,-3.6562,1.68,-1.82,-1.19,-0.0024,-0.1413,8.5952,-1.5115,-0.5573,-0.5496,-9.2871,-0.1149,-0.3543,-3.2901,1.0382,0.5573
40944.581,-5.3312,11.72,31.8437,6.79,13.65,-400.68,0.6413,-9.0162,-3.661,0.98,-1.68,-0.98,0.0096,-0.1628,8.5473,-1.374,-0.5725,-0.4351,-9.2895,-0.1317,-0.4357,-3.2595,1.084,0.687
41035.151,2.6656,14.7159,13.1366,-247.87,-141.12,22.82,0.6317,-9.0066,-3.5988,0.84,-1.68,-1.05,0.0335,-0.1101,8.5952,-1.1756,-0.6183,-0.4809,-9.3063,-0.1197,-0.4094,-3.1908,1.3664,0.3511
41096.635,-7.5517,-17.5011,-11.1553,305.41,-201.88,419.86,0.6413,-8.997,-3.5749,0.56,-1.82,-1.05,-0.0024,-0.1628,8.5186,-1.2443,-0.5802,-0.4962,-9.2536,-0.0646,-0.419,-3.6107,1.0916,0.3817
41185.801,-1.1773,-7.7336,-3.5797,-95.97,152.25,-198.59,0.6652,-8.9922,-3.5509,1.54,-1.68,-0.91,0.0263,-0.0551,8.5688,-1.5344,-0.542,-0.6947,-9.2608,-0.1077,-0.4621,-3.313,1.0076,0.3511
41274.727,2.5268,-9.3655,5.6614,54.11,58.87,-59.64,0.6604,-9.0162,-3.5988,1.89,-1.68,-1.05,0.0192,-0.1365,8.5186,-1.4198,-0.7023,-0.5496,-9.2703,-0.1293,-0.4166,-3.3893,1.0305,0.3664
41336.074,2.7852,-8.5041,10.6193,-16.1,-24.29,-5.18,0.6269,-9.0018,-3.661,1.05,-1.75,-1.05,-0.0168,-0.0982,8.5353,-1.3588,-0.5802,-0.4275,-9.2895,-0.2035,-0.5028,-3.2137,1.0916,0.6031
41426.925,2.4407,-10.0307,5.9342,-65.38,23.8,-30.8,0.6604,-9.0162,-3.6323,-0.07,-1.75,-1.05,-0.0096,-0.1197,8.6335,-1.2901,-0.5496,-0.5344,-9.323,-0.1173,-0.4262,-3.2672,1.2061,0.6412
41514.689,2.9145,-10.5811,5.4317,-13.93,25.27,-46.62,0.67,-9.0018,-3.5701,0.63,-1.75,-0.98,0.0072,-0.0886,8.4898,-1.4962,-0.5573,-0.4962,-9.3206,-0.1604,-0.4262,-3.2672,1.3435,0.4122
41575.293,3.6467,-6.8435,4.9675,7.14,11.83,-28.49,0.6365,-9.0066,-3.5988,2.03,-1.68,-1.12,0.0383,-0.146,8.521,-1.3435,-0.5115,-0.2595,-9.2751,-0.1532,-0.4166,-3.4046,1.0916,0.4504
41667.031,4.0104,-6.3027,4.7426,-4.9,2.52,-3.71,0.6317,-9.0209,-3.6132,1.96,-1.68,-1.05,0.0,-0.1437,8.5641,-1.2443,-0.5725,-0.3817,-9.2488,-0.1293,-0.3615,-3.0382,1.0611,0.4046
41755.074,4.2018,-7.2215,6.2979,-2.31,-16.59,19.88,0.6365,-9.0162,-3.6323,1.4,-1.68,-1.05,-0.067,-0.1532,8.6359,-1.3206,-0.7557,-0.4962,-9.2871,-0.1628,-0.3903,-3.0916,1.0458,0.5115
41814.802,4.2162,-8.2122,6.341,1.61,-50.89,51.45,0.6556,-9.0209,-3.5988,-0.42,-1.68,-1.05,-0.0215,-0.0814,8.6287,-1.3664,-0.7176,-0.4809,-9.2919,-0.103,-0.498,-3.0992,1.1298,0.4504
41904.86,2.7039,-10.0355,4.5033,-17.92,-33.95,0.7,0.6604,-9.0162,-3.5509,-0.42,-1.75,-0.98,-0.0479,-0.1365,8.588,-1.4504,-0.5725,-0.6718,-9.3087,-0.0862,-0.4429,-3.2061,1.0153,0.4733
41965.053,2.4598,-8.6381,3.2399,-13.86,-26.32,-5.6,0.6796,-8.9874,-3.5414,0.49,-1.68,-1.05,0.0168,-0.1652,8.521,-1.374,-0.7176,-0.5115,-9.2632,-0.0599,-0.4238,-3.2137,1.0763,0.4656
42054.967,2.8666,-7.1354,3.8572,-27.44,-39.48,8.19,0.6365,-9.0162,-3.6754,1.61,-1.61,-1.05,0.067,-0.1508,8.5114,-1.4275,-0.5496,-0.4351,-9.2703,-0.1101,-0.4597,-3.2748,1.1145,0.4962
42144.455,2.6943,-7.0875,3.7137,-13.93,-19.04,-25.34,0.6413,-9.0162,-3.7376,1.4,-1.75,-1.12,0.0,-0.182,8.418,-1.4275,-0.8397,-0.6565,-9.3134,-0.146,-0.4238,-3.3511,1.1221,0.3817
42205.802,0.7513,-5.6423,3.3595,1.61,-78.4,37.45,0.6365,-8.9874,-3.6562,0.42,-1.82,-1.05,0.0168,-0.146,8.5042,-1.4046,-0.6183,-0.6565,-9.2727,-0.1556,-0.4142,-3.1908,1.1756,0.4504
42295.514,-0.7657,-12.2178,-9.935,343.14,-33.46,273.91,0.6461,-9.0209,-3.5462,0.42,-1.68,-0.91,0.0694,-0.1772,8.5928,-1.4198,-0.4122,-0.4962,-9.2943,-0.1173,-0.3903,-3.2519,1.1832,0.4198
42384.508,-4.8957,-13.4764,-1.474,42.35,309.75,-283.71,0.6461,-9.0114,-3.527,0.63,-1.75,-1.12,0.0096,-0.1365,8.5186,-1.3206,-0.5191,-0.6412,-9.2943,-0.079,-0.3831,-3.229,0.9924,0.4351
42445.207,-4.5799,-6.0108,14.4766,85.12,269.99,-303.38,0.6604,-9.0209,-3.5988,1.54,-1.75,-1.05,-0.0144,-0.1245,8.5329,-1.4275,-0.6336,-0.7786,-9.2751,-0.0622,-0.3807,-3.313,1.1832,0.3817
42534.861,0.6461,6.5946,14.6824,-16.1,72.8,35.84,0.6556,-9.0162,-3.6467,1.12,-1.61,-1.05,-0.0503,-0.1197,8.5186,-1.4275,-0.6718,-0.542,-9.3111,-0.103,-0.5387,-3.1374,1.0611,0.3664
42626.869,1.0433,-4.0822,9.4134,35.42,15.19,28.35,0.6269,-9.0114,-3.6514,0.07,-1.75,-1.05,-0.0287,-0.1197,8.4707,-1.4275,-0.5344,-0.6107,-9.3134,-0.1508,-0.3591,-3.2672,1.1908,0.5496
42686.979,2.4168,-5.6758,6.4606,-263.97,31.92,25.97,0.67,-8.9874,-3.6084,-0.7,-1.82,-0.98,0.0503,-0.0958,8.4611,-1.2748,-0.5573,-0.7634,-9.347,-0.1125,-0.5028,-3.2214,1.0534,0.3817
42776.19,-2.7039,-8.9539,6.207,26.88,-337.82,136.5,0.6508,-9.0018,-3.5653,1.89,-1.68,-1.05,-0.012,-0.1077,8.5808,-1.3664,-0.6031,-0.6107,-9.2536,-0.1125,-0.407,-3.1756,1.1908,0.4962
42837.005,0.2393,-13.5529,0.3494,-207.97,-2.45,-15.82,0.6413,-9.0449,-3.6706,2.24,-1.68,-1.05,0.0407,-0.103,8.5712,-1.3588,-0.5802,-0.7786,-9.2344,-0.1437,-0.4381,-3.229,1.1145,0.3969
42924.959,-1.2682,-11.7488,-0.0335,-163.45,-23.31,126.42,0.6126,-9.0066,-3.6371,1.33,-1.68,-1.12,0.0503,-0.1772,8.5784,-1.4504,-0.542,-0.6107,-9.2727,-0.103,-0.3663,-3.1298,1.1069,0.3664
43014.523,-0.1149,-6.8148,-4.9244,-170.24,3.29,-77.35,0.6508,-9.0162,-3.6179,0.63,-1.68,-0.98,0.0096,-0.1484,8.521,-1.374,-0.6947,-0.7634,-9.3087,-0.1748,-0.4166,-3.3511,1.1145,0.5649
43077.256,0.4786,-5.4556,-1.7563,-89.11,-46.76,87.71,0.6748,-8.9922,-3.5557,-17.85,-1.75,-0.98,0.0575,-0.1317,8.5234,-1.2214,-0.5802,-0.3206,-9.268,-0.1245,-0.3352,-3.0763,1.0153,0.3664
43166.371,-0.871,-19.0852,-3.6514,-262.92,-122.36,62.16,0.67,-8.9874,-3.5701,0.07,-1.68,-0.98,0.0311,-0.0958,8.5497,-1.3893,-0.7557,-0.4885,-9.2847,-0.1101,-0.4501,-3.2672,1.0305,0.4122
43257.13,0.4211,-6.9248,-5.9677,56.0,-11.9,14.42,0.6461,-9.0018,-3.5988,1.26,-1.68,-1.05,0.0455,-0.1053,8.5305,-1.4427,-0.542,-0.4122,-9.2584,-0.1006,-0.431,-3.3664,1.0153,0.4809
43316.345,0.3876,-6.9775,-7.8389,-31.22,4.83,-5.88,0.6556,-9.0401,-3.6945,0.42,-1.89,-0.98,-0.0407,-0.1556,8.442,-1.4885,-0.6107,-0.6031,-9.3206,-0.1125,-0.3615,-3.2977,1.084,0.5344
43406.068,0.2058,-7.0828,-6.4367,-36.68,3.5,-7.42,0.6508,-9.0257,-3.7232,1.05,-1.54,-1.05,0.0096,-0.1365,8.521,-1.313,-0.5115,-0.6718,-9.2775,-0.1293,-0.4908,-3.1527,1.0153,0.542
43466.304,0.2201,-7.0301,-6.3553,1.96,-1.54,1.19,0.6365,-9.0209,-3.5414,0.63,-1.82,-1.05,0.0646,-0.1101,8.6215,-1.374,-0.5191,-0.4198,-9.3015,-0.1221,-0.4429,-3.3053,1.084,0.3206
43556.252,0.3015,-6.9105,-6.8339,11.48,-3.08,3.43,0.6461,-9.0066,-3.527,1.89,-1.61,-0.98,-0.012,-0.1221,8.4731,-1.2748,-0.5267,-0.4809,-9.2799,-0.1197,-0.419,-3.4198,1.2977,0.4351
43676.72,0.3685,-6.8961,-6.92,-1.96,-1.33,0.84,0.6556,-9.0018,-3.6036,1.19,-1.68,-0.98,-0.0239,-0.1101,8.5258,-1.2901,-0.5573,-0.5802,-9.3015,-0.103,-0.4597,-3.2137,1.2061,0.3893
43707.129,0.3446,-6.8483,-6.8387,-8.26,-0.07,-0.77,0.6604,-9.0162,-3.6371,-0.21,-1.75,-1.05,0.0144,-0.1365,8.5569,-1.3588,-0.5267,-0.4962,-9.2799,-0.1556,-0.3352,-3.4656,1.0687,0.4504
43795.344,0.3206,-6.8483,-6.8148,-4.76,0.07,-1.4,0.6508,-9.0162,-3.6227,0.63,-1.89,-1.05,0.0,-0.1628,8.4228,-1.2748,-0.6031,-0.3893,-9.2464,-0.1053,-0.3807,-3.2214,1.0763,0.4198
43915.197,0.3829,-6.8243,-7.0014,1.26,-1.19,0.91,0.6604,-8.9874,-3.5605,0.77,-1.82,-0.98,-0.0144,-0.0982,8.5353,-1.3893,-0.4198,-0.5802,-9.2057,-0.0934,-0.4118,-3.2519,1.0916,0.2366
43945.031,0.3637,-6.8483,-6.8195,0.49,-1.33,0.84,0.6461,-8.997,-3.5605,1.47,-1.68,-0.98,0.0215,-0.158,8.576,-1.3359,-0.6107,-0.7786,-9.2967,-0.1269,-0.3855,-3.1985,1.1985,0.5573
44034.412,0.3685,-6.8052,-6.8291,0.84,-1.26,0.91,0.6365,-9.0257,-3.6658,1.75,-1.75,-1.05,-0.0239,-0.0551,8.4874,-1.458,-0.5191,-0.7176,-9.2919,-0.0814,-0.4741,-3.1756,1.3588,0.3664
44124.44,0.3637,-6.8148,-6.9153,0.77,-1.26,0.91,0.6413,-9.0257,-3.6467,0.63,-1.68,-1.05,-0.0575,-0.1245,8.5066,-1.2977,-0.4656,-0.771,-9.2273,-0.1389,-0.498,-3.2824,1.3435,0.4962
44184.836,0.3494,-6.8291,-6.9009,0.7,-1.33,0.91,0.67,-9.0162,-3.5462,0.28,-1.75,-1.05,0.0551,-0.1221,8.667,-1.374,-0.458,-0.5267,-9.2536,-0.1077,-0.4453,-3.4656,1.1069,0.4504
44274.517,0.3637,-6.8291,-6.853,0.35,-1.33,0.98,0.6652,-9.0114,-3.5557,0.0,-1.82,-1.05,-0.0551,-0.17,8.5401,-1.4122,-0.7176,-0.5573,-9.268,-0.1437,-0.4118,-3.2137,0.9847,0.4504
44335.341,0.3637,-6.8148,-6.8626,0.14,-1.33,0.98,0.6413,-9.0018,-3.594,0.84,-1.68,-1.05,0.0144,-0.1389,8.5186,-1.3969,-0.5573,-0.3817,-9.2967,-0.1125,-0.4812,-3.458,1.2672,0.4656
44424.651,0.3589,-6.8387,-6.786,0.7,-1.33,0.98,0.6365,-8.997,-3.6371,1.68,-1.75,-1.05,-0.0215,-0.1724,8.5449,-1.2901,-0.5496,-0.687,-9.2512,-0.1652,-0.4477,-3.2595,1.1985,0.4046
44515.206,0.3733,-6.8004,-6.8626,0.77,-1.26,0.98,0.6461,-9.0066,-3.6227,0.77,-1.75,-0.98,0.0622,-0.067,8.509,-1.0687,-0.5954,-0.7252,-9.1961,-0.1077,-0.3543,-3.2977,1.0153,0.2748
44577.383,0.3637,-6.8004,-6.9057,1.33,-1.61,1.4,0.6365,-8.997,-3.6179,4.76,-1.82,-0.91,0.0718,-0.1006,8.4539,-1.2137,-0.7099,-0.5344,-9.2536,-0.1269,-0.5267,-3.1908,1.0611,0.5496
44666.229,0.3733,-6.8148,-6.9583,-1.12,-1.4,1.12,0.6652,-9.0066,-3.5366,-0.21,-1.68,-0.98,0.0215,-0.146,8.5377,-1.2366,-0.3893,-0.3511,-9.2703,-0.1341,-0.4573,-3.2977,1.2443,0.4504
44756.07,0.3302,-6.8243,-6.853,0.63,-1.33,0.84,0.6604,-8.9827,-3.5127,1.33,-1.82,-1.05,-0.0239,-0.1437,8.6024,-1.2901,-0.5649,-0.6947,-9.2081,-0.1532,-0.4501,-3.2519,1.1908,0.3282
44815.56,0.3541,-6.8387,-6.8291,0.77,-1.33,1.05,0.6078,-9.0018,-3.5844,1.68,-1.68,-1.05,-0.0168,-0.1053,8.5401,-1.4504,-0.4656,-0.5267,-9.2919,-0.1077,-0.5004,-3.2061,1.0763,0.2366
44906.009,0.3446,-6.8483,-6.8339,0.35,-1.33,0.98,0.6078,-9.0401,-3.6706,0.84,-1.75,-1.12,0.0168,-0.1053,8.4994,-1.313,-0.5802,-0.7863,-9.2775,-0.0838,-0.4932,-3.1603,0.916,0.4351
44995.046,0.3494,-6.8339,-6.8674,0.98,-1.26,0.91,0.6604,-9.0114,-3.6514,-0.14,-1.68,-0.98,0.0503,-0.1796,8.5641,-1.3511,-0.6107,-0.6718,-9.244,-0.1437,-0.4381,-3.3053,1.0382,0.687
45055.257,0.3446,-6.8387,-6.8818,1.12,-1.12,1.05,0.6652,-9.0162,-3.5988,0.42,-1.89,-1.05,0.0311,-0.1197,8.5617,-1.3511,-0.4733,-0.5954,-9.2536,-0.1221,-0.4645,-3.1679,1.0382,0.5191
45144.7,0.3541,-6.7813,-6.8865,-0.07,-1.47,1.05,0.6556,-9.0162,-3.5557,0.91,-1.82,-1.05,0.0192,-0.1053,8.5234,-1.5115,-0.6794,-0.4427,-9.2656,-0.1221,-0.3519,-3.1374,1.3053,0.3588
45207.453,0.3494,-6.8435,-6.8195,0.07,-1.4,1.12,0.6173,-9.0209,-3.5797,1.4,-1.82,-1.05,-0.012,-0.103,8.5856,-1.3206,-0.5496,-0.374,-9.2799,-0.1149,-0.4262,-3.4733,1.145,0.4046
45296.588,0.3398,-6.8578,-6.8291,0.63,-1.4,0.98,0.6508,-9.0066,-3.5557,0.98,-1.75,-1.05,0.0287,-0.1221,8.509,-1.4656,-0.5191,-0.5267,-9.2799,-0.1077,-0.3759,-3.4351,1.0687,0.5115
45386.711,0.3446,-6.8243,-6.9296,0.77,-1.26,0.98,0.6413,-9.0114,-3.594,0.28,-1.75,-1.05,-0.0072,-0.1101,8.5329,-1.2824,-0.4427,-0.6794,-9.2536,-0.1604,-0.4022,-3.2748,0.9771,0.2901
45446.337,0.3254,-6.8243,-6.92,0.56,-1.26,1.05,0.67,-9.0401,-3.5844,-1.26,-1.89,-1.05,0.0144,-0.0766,8.5018,-1.3511,-0.6565,-0.4733,-9.2464,-0.1149,-0.4764,-3.3588,1.145,0.2519
45534.557,0.335,-6.853,-6.8339,0.56,-1.26,0.98,0.7083,-8.997,-3.5174,-0.21,-1.82,-0.98,-0.0599,-0.1173,8.5449,-1.4885,-0.4351,-0.4733,-9.2273,-0.1389,-0.4621,-3.374,1.2366,0.458
45626.648,0.3446,-6.81,-6.8578,0.77,-1.12,1.05,0.6317,-9.0066,-3.6467,2.45,-1.75,-0.98,0.067,-0.1676,8.5018,-1.1985,-0.4198,-0.458,-9.2703,-0.1389,-0.4429,-3.2977,1.2214,0.5725
45775.989,0.3541,-6.8387,-6.8243,0.63,-1.4,0.98,0.6461,-9.0114,-3.6658,1.96,-1.68,-1.12,-0.0215,-0.1867,8.5569,-1.2366,-0.5573,-0.5344,-9.3278,-0.091,-0.5291,-3.2901,1.084,0.313
45865.026,0.335,-6.8435,-6.9153,1.19,-1.12,0.98,0.6269,-9.0305,-3.6371,0.84,-1.68,-0.98,0.067,-0.067,8.5712,-1.3664,-0.4809,-0.6107,-9.2656,-0.146,-0.4501,-3.3206,1.0,0.5344
45925.116,0.3398,-6.786,-6.9009,0.28,-1.4,1.05,0.6652,-9.0114,-3.5366,-0.28,-1.75,-0.98,0.0383,-0.1317,8.5497,-1.2214,-0.626,-0.5954,-9.2871,-0.0982,-0.4142,-3.2214,1.2137,0.3282
46014.848,0.3589,-6.8195,-6.7908,0.21,-1.47,1.05,0.6556,-8.9874,-3.5031,0.91,-1.82,-0.98,0.0287,-0.1149,8.4587,-1.3511,-0.626,-0.5267,-9.2608,-0.1484,-0.4405,-3.2137,1.3053,0.3588
46075.937,0.3589,-6.8483,-6.8387,1.05,-1.26,1.05,0.6317,-9.0114,-3.5701,1.19,-1.75,-1.12,0.0144,-0.1101,8.5952,-1.374,-0.5725,-0.5649,-9.2943,-0.1341,-0.3041,-3.3817,1.1985,0.5573
46164.925,0.3589,-6.8148,-6.8818,0.91,-1.33,0.91,0.6461,-9.0162,-3.6132,1.96,-2.1,-1.12,0.0503,-0.1556,8.339,-1.4122,-0.4046,-0.4275,-9.2967,-0.1532,-0.395,-3.3588,1.1756,0.5496
46254.828,0.335,-6.8148,-6.8483,0.21,-1.4,1.12,0.6365,-9.0257,-3.6419,1.19,-1.96,-1.12,0.0048,-0.1293,8.5976,-1.2824,-0.4656,-0.374,-9.3015,-0.1413,-0.3879,-3.2672,1.2214,0.374
46319.254,0.3206,-6.8291,-6.8865,0.63,-1.19,0.91,0.6365,-8.997,-3.6419,-0.98,-1.75,-1.05,-0.0263,-0.1532,8.5617,-1.2672,-0.4733,-0.4656,-9.2344,-0.0934,-0.4118,-3.145,1.0992,0.4046
46404.681,0.3589,-6.8195,-6.8913,0.21,-1.33,1.05,0.6748,-8.9827,-3.5031,0.77,-1.68,-0.91,-0.0048,-0.1437,8.5665,-1.3359,-0.4885,-0.6641,-9.3063,-0.0838,-0.3448,-3.4122,1.1145,0.2901
46495.842,0.3589,-6.8243,-6.8291,0.21,-1.4,1.12,0.6173,-9.0114,-3.5892,2.59,-1.75,-1.12,0.0096,-0.1077,8.5665,-1.4885,-0.5878,-0.3435,-9.2847,-0.1389,-0.4142,-3.2519,1.1145,0.4962
46554.839,0.3541,-6.8626,-6.7813,0.91,-1.4,0.91,0.6221,-9.0162,-3.6467,1.4,-1.61,-1.12,0.0,-0.1652,8.576,-1.5344,-0.5267,-0.5878,-9.2751,-0.1149,-0.4525,-3.3588,1.145,0.4656
46644.986,0.3398,-6.8387,-6.8961,1.05,-1.19,0.98,0.6652,-9.0209,-3.6132,0.0,-1.75,-1.12,0.0024,-0.1389,8.4946,-1.3664,-0.4733,-0.6718,-9.2871,-0.1365,-0.3831,-3.1145,1.2672,0.2977
46705.079,0.3494,-6.8148,-6.8961,1.05,-1.19,0.98,0.6604,-8.9874,-3.5701,-0.21,-1.75,-0.91,0.0407,-0.1006,8.6,-1.3053,-0.687,-0.4427,-9.2919,-0.1173,-0.4262,-3.3969,1.0916,0.4351
46795.13,0.3302,-6.8195,-6.7717,0.21,-1.4,1.12,0.6652,-9.0018,-3.5653,0.56,-1.75,-0.98,-0.0048,-0.1197,8.4994,-1.458,-0.5802,-0.6183,-9.2847,-0.0958,-0.3807,-3.2061,1.2519,0.2824
46885.247,0.3446,-6.8626,-6.8291,0.56,-1.26,0.98,0.6556,-9.0114,-3.6036,1.61,-1.82,-1.05,0.0072,-0.1508,8.4851,-1.2824,-0.4733,-0.4733,-9.2847,-0.0766,-0.3543,-3.3435,1.3511,0.4275
46947.835,0.3781,-6.8243,-6.877,0.49,-1.47,1.05,0.6652,-9.0018,-3.661,2.24,-1.75,-1.12,0.0599,-0.1628,8.6024,-1.3206,-0.6947,-0.374,-9.3015,-0.0694,-0.5219,-2.9771,1.0611,0.3435
47034.384,0.3541,-6.8148,-6.8339,0.56,-1.33,0.98,0.6173,-9.0305,-3.6658,1.4,-1.75,-1.05,0.012,-0.1077,8.509,-1.2214,-0.542,-0.5954,-9.2967,-0.1796,-0.431,-3.2748,1.2061,0.3282
47124.783,0.335,-6.8195,-6.8674,0.77,-1.26,0.98,0.67,-9.0449,-3.6036,0.7,-1.75,-1.05,0.0072,-0.1269,8.5665,-1.2824,-0.4962,-0.4885,-9.2273,-0.1125,-0.3711,-3.3664,1.0992,0.2901
47186.301,0.3302,-6.7908,-6.9248,0.07,-1.4,1.05,0.6556,-9.0018,-3.5127,0.14,-1.82,-0.91,-0.0168,-0.1532,8.4946,-1.4885,-0.6794,-0.5725,-9.2584,-0.0982,-0.4262,-3.1221,1.1069,0.5496
47306.305,0.3302,-6.8291,-6.8148,0.0,-1.47,1.05,0.6508,-9.0066,-3.4983,1.05,-1.75,-0.98,0.0359,-0.1508,8.509,-1.2443,-0.8015,-0.4427,-9.2871,-0.1389,-0.4142,-3.374,1.0382,0.3588
47366.084,0.3589,-6.853,-6.8578,0.84,-1.12,1.05,0.6508,-9.0209,-3.6562,1.82,-1.75,-1.12,0.0263,-0.1125,8.5353,-1.1527,-0.4275,-0.4962,-9.3111,-0.146,-0.4166,-3.2901,1.0992,0.5649
47426.091,0.3446,-6.8435,-6.9344,1.12,-1.05,0.84,0.6604,-9.0018,-3.6467,0.35,-1.68,-0.98,-0.0144,-0.1245,8.5952,-1.2824,-0.7786,-0.5725,-9.2823,-0.1293,-0.3472,-3.1832,1.1985,0.5038
47516.124,0.3398,-6.8004,-6.9057,0.42,-1.33,0.84,0.6269,-9.0449,-3.6036,1.54,-2.38,-1.33,-0.0503,-0.1293,8.5736,-1.374,-0.3588,-0.4504,-9.3039,-0.0718,-0.3711,-3.1908,0.9466,0.5038
47577.709,0.3398,-6.8435,-6.7908,0.35,-1.47,0.91,0.6796,-8.9779,-3.6897,2.1,-1.96,-1.26,-0.0431,-0.1652,8.5976,-1.458,-0.5038,-0.6107,-9.2823,-0.1101,-0.4597,-3.2748,1.0382,0.3893
47666.083,0.3494,-6.8387,-6.8483,0.21,-1.4,1.05,0.6508,-8.9922,-3.5462,1.82,-1.75,-1.12,0.0168,-0.1508,8.5305,-1.4504,-0.8092,-0.6947,-9.3254,-0.1317,-0.4238,-3.2977,1.0763,0.4504
47756.569,0.3494,-6.8243,-6.8961,0.14,-1.33,1.05,0.6269,-9.0114,-3.5749,2.1,-1.68,-1.12,0.0862,-0.1341,8.5904,-1.4275,-0.6565,-0.6947,-9.2823,-0.1077,-0.4381,-3.1603,1.1221,0.3588
47817.259,0.3398,-6.8291,-6.853,0.84,-1.4,0.98,0.6221,-9.0353,-3.661,1.82,-1.68,-1.05,-0.0239,-0.1389,8.5497,-1.0153,-0.4198,-0.626,-9.2009,-0.1149,-0.4597,-3.2672,1.1832,0.4427
47906.699,0.3302,-6.8052,-6.92,0.98,-1.19,0.91,0.6748,-8.9922,-3.6084,-0.56,-1.82,-1.12,0.0263,-0.103,8.5114,-1.229,-0.6565,-0.4809,-9.2536,-0.0814,-0.4238,-3.2061,1.1374,0.3664
47994.515,0.3685,-6.8195,-6.8722,0.21,-1.47,1.12,0.6796,-8.9874,-3.5509,-0.42,-1.75,-0.98,-0.0527,-0.1197,8.4946,-1.2214,-0.5878,-0.374,-9.2057,-0.1173,-0.4501,-3.1527,1.2672,0.4198
48054.744,0.335,-6.8243,-6.7286,0.21,-1.4,1.05,0.6461,-9.0257,-3.5797,1.4,-1.68,-1.05,-0.0144,-0.146,8.5497,-1.313,-0.5344,-0.7481,-9.2608,-0.0694,-0.3831,-3.1985,1.4046,0.4046
48144.184,0.3494,-6.8387,-6.8578,0.35,-1.4,1.05,0.6365,-9.0305,-3.6658,2.1,-1.82,-1.19,0.0646,-0.1437,8.5856,-1.4046,-0.5038,-0.5115,-9.2512,-0.1652,-0.3998,-3.3893,1.0611,0.4351
48235.153,0.3589,-6.8052,-6.9105,0.84,-1.19,0.91,0.6317,-9.0257,-3.6993,2.17,-1.54,-1.12,0.0072,-0.1149,8.4827,-1.4275,-0.771,-0.6031,-9.2656,-0.1077,-0.4118,-3.3588,1.1679,0.4122
48295.285,0.3302,-6.8148,-6.8722,0.42,-1.26,1.12,0.6317,-9.0449,-3.6227,0.63,-1.68,-1.05,-0.0096,-0.1221,8.5258,-1.2672,-0.6565,-0.5191,-9.3134,-0.1149,-0.3639,-3.2824,1.145,0.4275
48384.142,0.3302,-6.8339,-6.8818,0.56,-1.19,0.91,0.6269,-9.0114,-3.5797,0.14,-1.89,-1.05,0.0168,-0.1724,8.5066,-1.3969,-0.542,-0.6565,-9.3661,-0.0359,-0.3831,-3.3664,1.1908,0.4885
48444.908,0.3494,-6.8148,-6.8674,0.21,-1.33,0.98,0.6508,-8.9874,-3.4839,-0.14,-1.82,-0.98,0.0024,-0.1101,8.6119,-1.3893,-0.6641,-0.5878,-9.2943,-0.1077,-0.3903,-3.1985,1.1908,0.4962
48534.364,0.3685,-6.8243,-6.8195,0.28,-1.47,1.12,0.6413,-9.0257,-3.5988,2.24,-1.68,-1.05,-0.0287,-0.1891,8.5473,-1.3969,-0.4122,-0.2824,-9.244,-0.0886,-0.419,-3.4122,1.2672,0.4427
48625.874,0.3685,-6.853,-6.8626,1.05,-1.26,0.98,0.6221,-9.0449,-3.6993,0.98,-1.82,-1.05,0.0,-0.1053,8.5904,-1.2977,-0.4962,-0.3206,-9.2536,-0.146,-0.5124,-3.229,1.0611,0.458
48686.1,0.3398,-6.8387,-6.9153,0.91,-1.26,0.91,0.67,-9.0018,-3.6562,17.5,-1.68,-0.91,0.0407,-0.1221,8.4635,-1.2901,-0.5191,-0.6412,-9.2296,-0.1293,-0.4405,-3.2443,1.2977,0.6183
48775.821,0.3494,-6.8004,-6.8243,0.28,-1.54,1.19,0.6413,-9.0066,-3.6227,0.28,-1.75,-1.05,0.0575,-0.1413,8.5665,-1.542,-0.5496,-0.5038,-9.2703,-0.146,-0.3352,-3.2824,0.9618,0.4656
48865.914,0.3446,-6.8291,-6.7621,0.28,-1.4,1.19,0.6508,-9.0018,-3.5605,1.33,-1.75,-1.05,0.0551,-0.1197,8.509,-1.3206,-0.4351,-0.5878,-9.256,-0.182,-0.4262,-3.1832,1.1679,0.4504
48925.974,0.3733,-6.8243,-6.8004,0.7,-1.4,0.98,0.6413,-9.0162,-3.5892,2.31,-1.68,-1.05,0.0,-0.0982,8.4874,-1.3435,-0.687,-0.4656,-9.2919,-0.1101,-0.51,-3.3664,1.2214,0.4809
49015.358,0.3685,-6.7956,-6.8961,0.49,-1.4,1.05,0.6269,-9.0257,-3.6227,1.75,-1.68,-0.91,0.0072,-0.1006,8.5353,-1.0916,-0.5344,-0.4885,-9.2464,-0.1053,-0.4334,-3.4351,1.1985,0.2824
49076.143,0.335,-6.8339,-6.8435,0.77,-1.4,0.91,0.6413,-9.0353,-3.6084,0.56,-1.75,-1.05,-0.0838,-0.1293,8.5425,-1.2901,-0.6489,-0.6336,-9.2464,-0.17,-0.4501,-3.2824,1.2061,0.4656
49165.758,0.3494,-6.81,-6.9105,0.56,-1.19,0.91,0.6748,-9.0018,-3.5797,-0.91,-1.75,-1.05,-0.0287,-0.1508,8.5688,-1.4351,-0.3969,-0.542,-9.2943,-0.1221,-0.4597,-3.1756,1.0076,0.4656
49255.62,0.3685,-6.8195,-6.8483,0.21,-1.4,1.12,0.6748,-9.0162,-3.5127,0.07,-1.68,-1.05,0.0646,-0.146,8.4587,-1.5725,-0.8321,-0.626,-9.2392,-0.1365,-0.4836,-3.2366,1.3206,0.2977
49316.523,0.3589,-6.853,-6.7765,0.56,-1.4,0.98,0.6556,-9.0401,-3.6754,2.1,-1.61,-1.05,0.0263,-0.0862,8.5018,-1.4275,-0.5802,-0.5267,-9.2608,-0.1053,-0.4549,-3.374,1.0382,0.3053
49405.96,0.3637,-6.8435,-6.8722,0.77,-1.26,0.98,0.6413,-9.0449,-3.6658,1.4,-1.75,-1.05,-0.012,-0.1748,8.5425,-1.4275,-0.4504,-0.5802,-9.2727,-0.1484,-0.4812,-3.3893,1.0992,0.5802
49495.584,0.3541,-6.8052,-6.9153,0.42,-1.26,0.84,0.6604,-9.0305,-3.6802,0.91,-1.82,-1.05,-0.0622,-0.146,8.5569,-1.3282,-0.542,-0.5649,-9.2009,-0.1269,-0.4956,-3.4885,1.1221,0.4198
49556.14,0.3398,-6.8148,-6.8243,-0.07,-1.54,0.98,0.6269,-9.0257,-3.5797,0.49,-1.68,-0.98,0.0287,-0.1676,8.5186,-1.5191,-0.5191,-0.4809,-9.2727,-0.1149,-0.407,-3.3588,1.0611,0.4275
49646.084,0.3398,-6.81,-6.5803,2.24,-0.98,0.91,0.6652,-8.9444,-3.5079,2.24,-1.47,-1.05,0.0192,-0.1437,8.5545,-1.4504,-0.6031,-0.5038,-9.335,-0.1077,-0.3687,-3.1603,1.1527,0.4046
49734.37,0.3781,-6.8243,-6.8483,0.0,-1.54,1.12,0.6461,-9.0066,-3.5031,1.12,-1.89,-1.19,0.0048,-0.1269,8.4779,-1.374,-0.5496,-0.5649,-9.3134,-0.1556,-0.431,-3.3206,1.1985,0.3664
49796.263,0.3589,-6.8387,-6.786,0.7,-1.47,1.12,0.6269,-9.0257,-3.7041,1.12,-1.68,-1.12,0.0263,-0.1221,8.5473,-1.3893,-0.542,-0.5649,-9.2464,-0.1245,-0.4357,-3.2137,1.0611,0.7023
49885.013,0.3302,-6.8243,-6.8865,0.77,-1.33,0.77,0.6269,-9.0114,-3.6179,0.21,-1.75,-1.12,0.0311,-0.1197,8.4994,-1.2901,-0.626,-0.4733,-9.2416,-0.1341,-0.4334,-3.3588,1.1221,0.4427
49944.891,0.335,-6.8004,-6.9488,0.07,-1.47,1.12,0.6987,-9.0209,-3.5509,-0.21,-1.75,-0.91,-0.0168,-0.1652,8.5617,-1.3053,-0.5649,-0.7023,-9.2512,-0.067,-0.4836,-3.374,1.0916,0.4427
50035.613,0.3302,-6.81,-6.7813,0.35,-1.61,1.05,0.6652,-8.9874,-3.6754,0.63,-1.75,-0.98,0.0287,-0.1197,8.4946,-1.3969,-0.5802,-0.5191,-9.2847,-0.1532,-0.4262,-3.2977,1.1298,0.5191
50125.022,0.335,-6.8387,-6.8818,0.63,-1.33,1.05,0.6556,-9.0018,-3.5749,1.61,-1.82,-0.98,-0.0072,-0.1293,8.5449,-1.2061,-0.5802,-0.5954,-9.2584,-0.0958,-0.4477,-3.084,1.1756,0.4733
50185.953,0.3302,-6.7813,-6.8148,0.21,-1.47,1.12,0.6508,-8.9683,-3.661,2.31,-1.82,-1.05,-0.0144,-0.1269,8.4994,-1.1756,-0.4656,-0.5267,-9.2536,-0.0742,-0.4214,-3.0687,1.2824,0.313
50274.172,0.2967,-6.8578,-6.8195,1.47,-1.12,0.84,0.6413,-9.0401,-3.661,0.77,-1.68,-0.98,0.0,-0.1604,8.5066,-1.4427,-0.5496,-0.6336,-9.256,-0.103,-0.4118,-3.229,1.0305,0.3359
50364.553,0.3398,-6.8195,-6.987,2.1,-0.84,0.77,0.6652,-9.0114,-3.6514,-0.91,-1.82,-0.98,0.0168,-0.17,8.5952,-1.4504,-0.7481,-0.4427,-9.2775,-0.1006,-0.3567,-3.2214,1.2901,0.4122
50425.87,0.3446,-6.8004,-6.8961,0.84,-1.33,1.12,0.7035,-9.0018,-3.527,-0.98,-1.68,-0.84,0.067,-0.1077,8.6431,-1.145,-0.7099,-0.542,-9.2033,-0.1532,-0.3424,-3.229,1.2061,0.5344
50514.616,0.3398,-6.8291,-6.8004,-0.07,-1.54,1.12,0.6269,-9.0114,-3.5318,1.12,-1.75,-0.98,-0.0096,-0.1963,8.5042,-1.2901,-0.4046,-0.5344,-9.2895,-0.0694,-0.431,-3.3588,1.1908,0.6794
50574.991,0.3781,-6.853,-6.8578,0.63,-1.47,1.05,0.6365,-9.0305,-3.6084,0.07,-2.73,-1.75,0.0263,-0.1844,8.509,-1.4504,-0.6412,-0.6641,-9.2344,-0.103,-0.5171,-3.2672,1.2214,0.374
50666.543,0.3637,-6.7956,-6.8626,0.28,-1.54,1.26,0.6413,-8.9827,-3.6084,0.98,-1.82,-1.05,-0.0168,-0.1317,8.5784,-1.3588,-0.8321,-0.5115,-9.244,-0.1077,-0.407,-3.1679,0.9313,0.5191
50755.948,0.335,-6.81,-6.8052,-0.21,-1.54,0.98,0.6413,-9.0353,-3.5653,0.98,-1.96,-1.26,0.0407,-0.0862,8.4539,-1.229,-0.4122,-0.3588,-9.2536,-0.1149,-0.3639,-3.229,0.9847,0.3282
50817.608,0.3302,-6.8291,-6.8578,0.42,-1.33,1.05,0.6652,-9.0209,-3.594,0.63,-1.89,-1.12,0.012,-0.1341,8.5688,-1.3511,-0.5191,-0.3359,-9.3039,-0.1341,-0.4453,-3.2977,0.9924,0.6183
50904.881,0.3446,-6.8195,-6.8674,0.35,-1.47,1.12,0.6556,-8.997,-3.5414,0.98,-1.75,-1.05,0.0742,-0.1484,8.5569,-1.4046,-0.5191,-0.6031,-9.2823,-0.1269,-0.3735,-3.0611,1.084,0.3206
50994.759,0.3446,-6.8291,-6.877,0.28,-1.4,1.05,0.6221,-9.0401,-3.5892,1.61,-1.96,-1.12,0.0455,-0.1676,8.4755,-1.2137,-0.4962,-0.4733,-9.3134,-0.1389,-0.5267,-3.229,1.2061,0.3588
51054.049,0.3733,-6.853,-6.9009,1.12,-1.12,0.84,0.6365,-9.0592,-3.6371,1.61,-1.75,-1.12,0.012,-0.1437,8.5138,-1.3435,-0.5954,-0.5573,-9.3158,-0.1796,-0.3855,-3.0687,1.2061,0.2977
51174.667,0.3446,-6.8291,-6.9009,0.56,-1.33,0.91,0.67,-9.0209,-3.6227,0.42,-1.96,-1.05,-0.0168,-0.1724,8.5545,-1.3282,-0.5496,-0.6107,-9.2991,-0.1508,-0.3783,-3.3817,1.145,0.458
51234.093,0.3589,-6.8291,-6.8626,0.42,-1.26,0.98,0.6652,-9.0353,-3.5557,-0.07,-1.75,-1.05,-0.0599,-0.1077,8.5617,-1.2672,-0.5344,-0.3435,-9.2368,-0.1508,-0.3807,-3.2519,1.0,0.4275
51294.623,0.3302,-6.8483,-6.8243,0.63,-1.26,0.98,0.6508,-9.0114,-3.5797,0.7,-1.75,-0.98,-0.0239,-0.0862,8.4467,-1.2672,-0.5573,-0.5954,-9.2799,-0.1125,-0.4405,-3.2443,1.3206,0.4962
51384.261,0.3541,-6.8339,-6.8339,0.63,-1.26,1.05,0.6604,-9.0162,-3.5557,0.98,-1.82,-1.05,0.0742,-0.1652,8.4659,-1.2061,-0.458,-0.626,-9.2536,-0.0742,-0.3735,-3.3206,1.145,0.5191
51447.205,0.3589,-6.8339,-6.8004,0.14,-1.4,1.05,0.6173,-9.0353,-3.6419,2.17,-1.68,-1.05,0.0239,-0.1173,8.4204,-1.4275,-0.6718,-0.5267,-9.2775,-0.1484,-0.3448,-3.4275,1.1069,0.3817
51534.556,0.3302,-6.8483,-6.8865,0.91,-1.33,0.77,0.6461,-9.0497,-3.6562,0.28,-2.1,-1.33,0.0335,-0.146,8.4779,-1.229,-0.5496,-0.4351,-9.2488,-0.1389,-0.4262,-3.1985,1.1069,0.3817
51624.96,0.335,-6.8148,-6.877,0.35,-1.4,1.12,0.6843,-8.9922,-3.5844,0.21,-1.96,-1.12,0.0383,-0.1484,8.521,-1.4122,-0.3664,-0.4656,-9.2273,-0.1101,-0.4788,-3.2748,1.0992,0.3206
51688.357,0.3063,-6.8483,-6.9679,0.56,-1.26,0.98,0.6413,-9.0114,-3.5749,0.84,-1.96,-1.05,0.012,-0.1149,8.5281,-1.229,-0.5496,-0.6107,-9.3015,-0.0742,-0.4094,-3.4351,1.2672,0.3969
51775.666,0.335,-6.8578,-6.7908,0.7,-1.26,0.91,0.6461,-9.0544,-3.594,0.98,-1.68,-0.98,0.0575,-0.1221,8.5856,-1.4275,-0.4733,-0.4733,-9.2967,-0.0934,-0.4046,-3.1832,1.0916,0.4351
51865.914,0.3398,-6.8148,-6.9057,0.07,-1.12,0.91,0.6413,-9.0305,-3.5701,1.47,-1.82,-1.05,0.0383,-0.1484,8.5808,-1.4122,-0.5344,-0.6107,-9.2177,-0.0934,-0.3735,-3.3359,1.2443,0.1756
51926.772,0.3302,-6.8387,-6.8818,0.7,-1.26,0.98,0.6652,-9.0162,-3.6132,0.56,-1.68,-1.12,-0.0479,-0.1365,8.5018,-1.2519,-0.7023,-0.5496,-9.2967,-0.1365,-0.5148,-3.1221,1.3206,0.374
52015.998,0.3541,-6.8004,-6.8722,-0.35,-1.54,0.98,0.6413,-9.0353,-3.5797,-0.21,-1.82,-1.12,0.0048,-0.1389,8.5569,-1.4427,-0.5802,-0.5649,-9.2823,-0.1676,-0.4286,-3.229,0.9847,0.5649
52104.036,0.3111,-6.8291,-6.9392,0.98,-1.19,0.84,0.6891,-8.997,-3.5509,0.0,-1.89,-1.05,-0.0072,-0.1365,8.5665,-1.458,-0.542,-0.4656,-9.2536,-0.1532,-0.3879,-3.3588,1.1756,0.4427
52169.141,0.3446,-6.8435,-6.8339,0.63,-1.4,1.12,0.6652,-9.0305,-3.5988,1.89,-1.82,-1.05,0.0527,-0.1437,8.5258,-1.4351,-0.6107,-0.458,-9.2991,-0.0455,-0.3663,-3.1908,1.1221,0.5878
52254.392,0.3589,-6.8435,-6.8148,1.05,-1.4,0.98,0.6365,-9.0162,-3.661,1.89,-1.68,-1.12,0.0,-0.1796,8.4946,-1.3588,-0.4962,-0.4504,-9.2392,-0.0958,-0.4262,-3.1527,1.1069,0.3511
52315.67,0.3254,-6.8387,-6.8626,0.77,-1.33,1.05,0.6365,-9.0209,-3.6036,0.77,-1.68,-1.05,-0.0503,-0.1245,8.5497,-1.4809,-0.5191,-0.5267,-9.2273,-0.0958,-0.4166,-3.3053,1.0076,0.3053
52404.7,0.3159,-6.8052,-6.9105,0.28,-1.33,1.05,0.67,-9.0257,-3.5844,0.42,-1.75,-1.05,0.0263,-0.1389,8.588,-1.2519,-0.5649,-0.5878,-9.2249,-0.1389,-0.3543,-3.2901,1.1832,0.4122
52494.606,0.3302,-6.8195,-6.8387,0.42,-1.4,1.12,0.67,-9.0018,-3.5318,0.35,-1.75,-1.05,0.0359,-0.0958,8.6143,-1.313,-0.6489,-0.6641,-9.2703,-0.0982,-0.4381,-3.1985,1.2214,0.313
52554.989,0.3589,-6.8148,-6.8626,0.84,-1.26,0.98,0.6413,-9.0162,-3.5892,1.19,-1.89,-1.12,0.0646,-0.1245,8.5377,-1.2214,-0.4809,-0.4656,-9.2775,-0.0982,-0.4812,-3.1298,1.1832,0.4656
52644.5,0.3398,-6.8243,-6.9009,0.7,-1.33,0.98,0.6508,-9.0209,-3.5892,1.05,-1.75,-1.05,0.0646,-0.0742,8.576,-1.3893,-0.5725,-0.4504,-9.2536,-0.1101,-0.4262,-3.2824,1.0305,0.4275
52735.684,0.3398,-6.8339,-6.853,0.7,-1.33,0.91,0.6317,-9.0449,-3.6706,0.77,-1.75,-1.12,-0.0048,-0.1556,8.6311,-1.2443,-0.5038,-0.5496,-9.2416,-0.1149,-0.4741,-3.2443,1.0,0.5038
52797.957,0.3015,-6.8626,-6.877,0.98,-1.26,0.91,0.6413,-9.0162,-3.6323,-0.35,-1.82,-1.19,0.0335,-0.0862,8.5305,-1.3359,-0.5802,-0.6565,-9.2368,-0.1173,-0.4573,-3.1756,1.1527,0.458
52884.647,0.3446,-6.8004,-6.877,-0.07,-1.4,0.98,0.6748,-8.9827,-3.5605,0.21,-1.82,-1.05,0.0287,-0.1125,8.4851,-1.3053,-0.6107,-0.6718,-9.2153,-0.1149,-0.4286,-3.1298,1.2824,0.5191
52974.863,0.3302,-6.8004,-6.8291,0.21,-1.4,1.12,0.6508,-9.0114,-3.5701,1.19,-1.89,-1.05,-0.0263,-0.0479,8.5641,-1.542,-1.0916,-0.6565,-8.9615,-0.158,-0.6249,-3.3893,0.6412,0.4122
53038.345,0.3494,-6.8435,-6.8195,1.12,-1.19,1.05,0.6317,-9.0209,-3.6227,2.03,-1.68,-1.05,0.0862,-0.1293,8.5353,-1.145,-0.5573,-0.5725,-9.2967,-0.0694,-0.4238,-2.7176,1.2595,0.4504
53125.59,0.3494,-6.8387,-6.9727,1.05,-1.19,0.91,0.6508,-9.0257,-3.6323,0.77,-1.75,-1.12,-0.0072,-0.182,8.5736,-1.2824,-0.6718,-0.6412,-9.2799,-0.1676,-0.3974,-3.542,0.8626,0.3282
